%time,field.header.seq,field.header.stamp,field.header.frame_id,field.orientation.x,field.orientation.y,field.orientation.z,field.orientation.w,field.orientation_covariance0,field.orientation_covariance1,field.orientation_covariance2,field.orientation_covariance3,field.orientation_covariance4,field.orientation_covariance5,field.orientation_covariance6,field.orientation_covariance7,field.orientation_covariance8,field.angular_velocity.x,field.angular_velocity.y,field.angular_velocity.z,field.angular_velocity_covariance0,field.angular_velocity_covariance1,field.angular_velocity_covariance2,field.angular_velocity_covariance3,field.angular_velocity_covariance4,field.angular_velocity_covariance5,field.angular_velocity_covariance6,field.angular_velocity_covariance7,field.angular_velocity_covariance8,field.linear_acceleration.x,field.linear_acceleration.y,field.linear_acceleration.z,field.linear_acceleration_covariance0,field.linear_acceleration_covariance1,field.linear_acceleration_covariance2,field.linear_acceleration_covariance3,field.linear_acceleration_covariance4,field.linear_acceleration_covariance5,field.linear_acceleration_covariance6,field.linear_acceleration_covariance7,field.linear_acceleration_covariance8
1598621623164180288,4131,1598621623163744522,xsense,-0.658721662235,0.113174901559,-0.720905887741,-0.183226401972,-1.0,0.0,0.0,0.0,0.0,0.0,0.0,0.0,0.0,0.0014351293786,0.00171350876887,0.00454259396912,-1.0,0.0,0.0,0.0,0.0,0.0,0.0,0.0,0.0,9.76436003134,0.76652299478,1.02355499935,-1.0,0.0,0.0,0.0,0.0,0.0,0.0,0.0,0.0
1598621623164582631,4132,1598621623164359734,xsense,-0.658703859317,0.113168545893,-0.720922166045,-0.183230282561,-1.0,0.0,0.0,0.0,0.0,0.0,0.0,0.0,0.0,0.0015830433101,0.00608830422827,-0.000227492595634,-1.0,0.0,0.0,0.0,0.0,0.0,0.0,0.0,0.0,9.78759303459,0.768105299881,1.04938161224,-1.0,0.0,0.0,0.0,0.0,0.0,0.0,0.0,0.0
1598621623165633330,4133,1598621623165284365,xsense,-0.658687181308,0.113157116749,-0.720936841305,-0.183239556203,-1.0,0.0,0.0,0.0,0.0,0.0,0.0,0.0,0.0,0.00161835331797,0.00602175162212,-0.00175156008422,-1.0,0.0,0.0,0.0,0.0,0.0,0.0,0.0,0.0,9.76200909074,0.770695495839,1.07309326475,-1.0,0.0,0.0,0.0,0.0,0.0,0.0,0.0,0.0
1598621623166387772,4134,1598621623165998031,xsense,-0.658694055747,0.113169545413,-0.720929007142,-0.183237991626,-1.0,0.0,0.0,0.0,0.0,0.0,0.0,0.0,0.0,-4.93881787199e-05,-0.00145824110368,0.00159004889107,-1.0,0.0,0.0,0.0,0.0,0.0,0.0,0.0,0.0,9.73715127896,0.746742281183,1.07425448066,-1.0,0.0,0.0,0.0,0.0,0.0,0.0,0.0,0.0
1598621623203769222,4135,1598621623203492177,xsense,-0.658700580279,0.113159402163,-0.720924665925,-0.183237881733,-1.0,0.0,0.0,0.0,0.0,0.0,0.0,0.0,0.0,0.00308903257199,-8.84306947302e-05,-0.00145122272293,-1.0,0.0,0.0,0.0,0.0,0.0,0.0,0.0,0.0,9.78750594799,0.768244260554,1.0500918905,-1.0,0.0,0.0,0.0,0.0,0.0,0.0,0.0,0.0
1598621623204904448,4136,1598621623204539754,xsense,-0.658702007604,0.113170165366,-0.720921802422,-0.183237369664,-1.0,0.0,0.0,0.0,0.0,0.0,0.0,0.0,0.0,-3.5336031318e-05,6.65924770756e-05,0.00152406677155,-1.0,0.0,0.0,0.0,0.0,0.0,0.0,0.0,0.0,9.76267362437,0.7442872662,1.05102453375,-1.0,0.0,0.0,0.0,0.0,0.0,0.0,0.0,0.0
1598621623205282387,4137,1598621623205029081,xsense,-0.658703086065,0.113158357078,-0.720922430562,-0.183238314074,-1.0,0.0,0.0,0.0,0.0,0.0,0.0,0.0,0.0,0.00310308691717,0.00143635640635,-0.00151722571741,-1.0,0.0,0.0,0.0,0.0,0.0,0.0,0.0,0.0,9.76469314536,0.790811557001,1.02257190573,-1.0,0.0,0.0,0.0,0.0,0.0,0.0,0.0,0.0
1598621623206140025,4138,1598621623205706731,xsense,-0.658695891486,0.11315561816,-0.720926314003,-0.183250589076,-1.0,0.0,0.0,0.0,0.0,0.0,0.0,0.0,0.0,6.34323355081e-05,0.00298300197773,-0.00165612099646,-1.0,0.0,0.0,0.0,0.0,0.0,0.0,0.0,0.0,9.76194922473,0.770922176933,1.07347496433,-1.0,0.0,0.0,0.0,0.0,0.0,0.0,0.0,0.0
1598621623244233649,4139,1598621623243849679,xsense,-0.658690388825,0.113147230726,-0.720933507217,-0.183247248329,-1.0,0.0,0.0,0.0,0.0,0.0,0.0,0.0,0.0,0.00308176224233,0.00302780915293,-5.91421252757e-05,-1.0,0.0,0.0,0.0,0.0,0.0,0.0,0.0,0.0,9.73752661068,0.771371283328,1.07259070012,-1.0,0.0,0.0,0.0,0.0,0.0,0.0,0.0,0.0
1598621623244680440,4140,1598621623244422661,xsense,-0.658693232742,0.113152620712,-0.720931506001,-0.183241570669,-1.0,0.0,0.0,0.0,0.0,0.0,0.0,0.0,0.0,0.00149145542504,5.57358247857e-05,0.00156054352933,-1.0,0.0,0.0,0.0,0.0,0.0,0.0,0.0,0.0,9.76234824702,0.795292528603,1.07177794155,-1.0,0.0,0.0,0.0,0.0,0.0,0.0,0.0,0.0
1598621623247301614,4141,1598621623246867333,xsense,-0.658708097039,0.113156267754,-0.720917960403,-0.183239177939,-1.0,0.0,0.0,0.0,0.0,0.0,0.0,0.0,0.0,0.00149876217493,-0.00306053040698,0.00016860592743,-1.0,0.0,0.0,0.0,0.0,0.0,0.0,0.0,0.0,9.76305318722,0.768775377097,1.04943627502,-1.0,0.0,0.0,0.0,0.0,0.0,0.0,0.0,0.0
1598621623247950795,4142,1598621623247601833,xsense,-0.658696077134,0.113174161019,-0.72092577122,-0.183240605862,-1.0,0.0,0.0,0.0,0.0,0.0,0.0,0.0,0.0,-0.00156950243249,0.00319385590778,0.00287951998583,-1.0,0.0,0.0,0.0,0.0,0.0,0.0,0.0,0.0,9.76419499831,0.766495867504,1.0251484179,-1.0,0.0,0.0,0.0,0.0,0.0,0.0,0.0,0.0
1598621623293461565,4143,1598621623293011316,xsense,-0.658697438501,0.113162065184,-0.720928856409,-0.183231044075,-1.0,0.0,0.0,0.0,0.0,0.0,0.0,0.0,0.0,0.00459461961263,0.00149199464429,4.33840441836e-05,-1.0,0.0,0.0,0.0,0.0,0.0,0.0,0.0,0.0,9.76486388537,0.739919557284,1.00318289402,-1.0,0.0,0.0,0.0,0.0,0.0,0.0,0.0,0.0
1598621623294043480,4144,1598621623293723040,xsense,-0.6586879745,0.113169497541,-0.720935931097,-0.183232639913,-1.0,0.0,0.0,0.0,0.0,0.0,0.0,0.0,0.0,-7.26481511789e-06,0.00311630057695,0.00139186801067,-1.0,0.0,0.0,0.0,0.0,0.0,0.0,0.0,0.0,9.76303217179,0.768453419475,1.04986750031,-1.0,0.0,0.0,0.0,0.0,0.0,0.0,0.0,0.0
1598621623296635772,4145,1598621623296329467,xsense,-0.65868650059,0.113168148819,-0.720937293532,-0.183233410783,-1.0,0.0,0.0,0.0,0.0,0.0,0.0,0.0,0.0,0.00154093266276,0.00151385987501,-2.95786211158e-05,-1.0,0.0,0.0,0.0,0.0,0.0,0.0,0.0,0.0,9.76188067237,0.770526457722,1.07438209068,-1.0,0.0,0.0,0.0,0.0,0.0,0.0,0.0,0.0
1598621623297251162,4146,1598621623296973736,xsense,-0.658690198174,0.113168740054,-0.720931238605,-0.183243576441,-1.0,0.0,0.0,0.0,0.0,0.0,0.0,0.0,0.0,3.54389296246e-05,-6.66986604183e-05,-0.00152405993094,-1.0,0.0,0.0,0.0,0.0,0.0,0.0,0.0,0.0,9.73590077959,0.748773786063,1.0996864216,-1.0,0.0,0.0,0.0,0.0,0.0,0.0,0.0,0.0
1598621623297810533,4147,1598621623297481522,xsense,-0.658702169289,0.113160262814,-0.720921927852,-0.183242410584,-1.0,0.0,0.0,0.0,0.0,0.0,0.0,0.0,0.0,0.00307507115622,-0.00161337481927,-0.00138489398303,-1.0,0.0,0.0,0.0,0.0,0.0,0.0,0.0,0.0,9.78783033112,0.79260640961,1.04911233584,-1.0,0.0,0.0,0.0,0.0,0.0,0.0,0.0,0.0
1598621623333032201,4148,1598621623332934134,xsense,-0.658702175052,0.113160250326,-0.720921938483,-0.183242355753,-1.0,0.0,0.0,0.0,0.0,0.0,0.0,0.0,0.0,0.0,0.0,0.0,-1.0,0.0,0.0,0.0,0.0,0.0,0.0,0.0,0.0,9.73974893047,0.76693788135,1.02450622031,-1.0,0.0,0.0,0.0,0.0,0.0,0.0,0.0,0.0
1598621623333406396,4149,1598621623333304574,xsense,-0.658704671527,0.113143068551,-0.720923427548,-0.18323813293,-1.0,0.0,0.0,0.0,0.0,0.0,0.0,0.0,0.0,0.00463004622312,0.00142531566999,-0.00148063981873,-1.0,0.0,0.0,0.0,0.0,0.0,0.0,0.0,0.0,9.76570121742,0.788870061561,0.999316683289,-1.0,0.0,0.0,0.0,0.0,0.0,0.0,0.0,0.0
1598621623333553275,4150,1598621623333456200,xsense,-0.658684032661,0.113147457055,-0.720937983083,-0.183252346854,-1.0,0.0,0.0,0.0,0.0,0.0,0.0,0.0,0.0,-0.00147065300077,0.00611013123645,-0.000301194753849,-1.0,0.0,0.0,0.0,0.0,0.0,0.0,0.0,0.0,9.78732433542,0.768572655955,1.05154332239,-1.0,0.0,0.0,0.0,0.0,0.0,0.0,0.0,0.0
1598621623334367376,4151,1598621623334266979,xsense,-0.658677394648,0.113144155447,-0.720946772243,-0.183243666905,-1.0,0.0,0.0,0.0,0.0,0.0,0.0,0.0,0.0,0.00304632110964,0.00309454129583,0.00146489677767,-1.0,0.0,0.0,0.0,0.0,0.0,0.0,0.0,0.0,9.73737880694,0.771355114169,1.07394330375,-1.0,0.0,0.0,0.0,0.0,0.0,0.0,0.0,0.0
1598621623372657302,4152,1598621623372526229,xsense,-0.658683927625,0.113134000659,-0.720942439215,-0.183243501174,-1.0,0.0,0.0,0.0,0.0,0.0,0.0,0.0,0.0,0.00308921461707,-8.86054525912e-05,-0.0014508574836,-1.0,0.0,0.0,0.0,0.0,0.0,0.0,0.0,0.0,9.76288110868,0.768904349303,1.05094156179,-1.0,0.0,0.0,0.0,0.0,0.0,0.0,0.0,0.0
1598621623372828422,4153,1598621623372705814,xsense,-0.658701967002,0.113149487096,-0.720927117395,-0.183229374398,-1.0,0.0,0.0,0.0,0.0,0.0,0.0,0.0,0.0,0.00141367958636,-0.00445173550584,0.00328331055297,-1.0,0.0,0.0,0.0,0.0,0.0,0.0,0.0,0.0,9.73739416755,0.771322344938,1.07382756747,-1.0,0.0,0.0,0.0,0.0,0.0,0.0,0.0,0.0
1598621623373447296,4154,1598621623373332239,xsense,-0.65870883835,0.11316191695,-0.720919285719,-0.18322780987,-1.0,0.0,0.0,0.0,0.0,0.0,0.0,0.0,0.0,-4.95476750693e-05,-0.00145799936503,0.00159026714751,-1.0,0.0,0.0,0.0,0.0,0.0,0.0,0.0,0.0,9.78847888203,0.766123258064,1.02728320017,-1.0,0.0,0.0,0.0,0.0,0.0,0.0,0.0,0.0
1598621623373580772,4155,1598621623373504628,xsense,-0.658705946931,0.113165941218,-0.720919786762,-0.18323374766,-1.0,0.0,0.0,0.0,0.0,0.0,0.0,0.0,0.0,1.40863243071e-05,0.00152480299138,-6.62123350442e-05,-1.0,0.0,0.0,0.0,0.0,0.0,0.0,0.0,0.0,9.76478411238,0.739945181224,1.00394020639,-1.0,0.0,0.0,0.0,0.0,0.0,0.0,0.0,0.0
1598621623421812460,4156,1598621623421595705,xsense,-0.658699890457,0.113158113734,-0.720922072616,-0.183251359677,-1.0,0.0,0.0,0.0,0.0,0.0,0.0,0.0,0.0,9.91206659328e-05,0.00291599963998,-0.00318053336251,-1.0,0.0,0.0,0.0,0.0,0.0,0.0,0.0,0.0,9.76134755922,0.746509321245,1.07703882496,-1.0,0.0,0.0,0.0,0.0,0.0,0.0,0.0,0.0
1598621623422163669,4157,1598621623421959437,xsense,-0.658703298251,0.113159004688,-0.720913550076,-0.183272086932,-1.0,0.0,0.0,0.0,0.0,0.0,0.0,0.0,0.0,-0.00145585864609,-0.00012268789526,-0.00308469477872,-1.0,0.0,0.0,0.0,0.0,0.0,0.0,0.0,0.0,9.73850917334,0.76933961032,1.04960090089,-1.0,0.0,0.0,0.0,0.0,0.0,0.0,0.0,0.0
1598621623422399238,4158,1598621623422338261,xsense,-0.658690658448,0.113154597058,-0.720922402772,-0.183285413551,-1.0,0.0,0.0,0.0,0.0,0.0,0.0,0.0,0.0,7.7622948124e-05,0.00450762377684,-0.0017226583523,-1.0,0.0,0.0,0.0,0.0,0.0,0.0,0.0,0.0,9.7614782057,0.822123850511,1.09534612235,-1.0,0.0,0.0,0.0,0.0,0.0,0.0,0.0,0.0
1598621623423027050,4159,1598621623422918793,xsense,-0.658694912444,0.113154627456,-0.720921254271,-0.183274623846,-1.0,0.0,0.0,0.0,0.0,0.0,0.0,0.0,0.0,0.00301817357758,4.50275224094e-05,0.00159729474833,-1.0,0.0,0.0,0.0,0.0,0.0,0.0,0.0,0.0,9.76485963342,0.815741933367,1.02267358918,-1.0,0.0,0.0,0.0,0.0,0.0,0.0,0.0,0.0
1598621623423156425,4160,1598621623423084344,xsense,-0.658702066291,0.113166771756,-0.720915879118,-0.183262557196,-1.0,0.0,0.0,0.0,0.0,0.0,0.0,0.0,0.0,0.0014417467966,-0.00140206713167,0.00315095081009,-1.0,0.0,0.0,0.0,0.0,0.0,0.0,0.0,0.0,9.76285218397,0.769032507402,1.05111647772,-1.0,0.0,0.0,0.0,0.0,0.0,0.0,0.0,0.0
1598621623463840598,4161,1598621623463449016,xsense,-0.658699456549,0.113170509123,-0.720918838085,-0.183257989462,-1.0,0.0,0.0,0.0,0.0,0.0,0.0,0.0,0.0,0.00150540097566,0.00158071394714,0.00149442748601,-1.0,0.0,0.0,0.0,0.0,0.0,0.0,0.0,0.0,9.76241936698,0.744503292439,1.05323091158,-1.0,0.0,0.0,0.0,0.0,0.0,0.0,0.0,0.0
1598621623464479487,4162,1598621623464128110,xsense,-0.658689990333,0.113177941519,-0.72092591322,-0.183259591389,-1.0,0.0,0.0,0.0,0.0,0.0,0.0,0.0,0.0,-7.37328099168e-06,0.00311644583347,0.0013915578096,-1.0,0.0,0.0,0.0,0.0,0.0,0.0,0.0,0.0,9.76512735508,0.764415931648,1.00274962247,-1.0,0.0,0.0,0.0,0.0,0.0,0.0,0.0,0.0
1598621623465395425,4163,1598621623465112037,xsense,-0.658687098708,0.113181965663,-0.720926414037,-0.183265529184,-1.0,0.0,0.0,0.0,0.0,0.0,0.0,0.0,0.0,1.4091220077e-05,0.00152480367258,-6.62464941163e-05,-1.0,0.0,0.0,0.0,0.0,0.0,0.0,0.0,0.0,9.76011290842,0.748577970555,1.10226886022,-1.0,0.0,0.0,0.0,0.0,0.0,0.0,0.0,0.0
1598621623466045030,4164,1598621623465501597,xsense,-0.65869221392,0.113177184102,-0.720921220212,-0.183270528364,-1.0,0.0,0.0,0.0,0.0,0.0,0.0,0.0,0.0,0.00156241976913,-7.77770933992e-05,-0.00148739227784,-1.0,0.0,0.0,0.0,0.0,0.0,0.0,0.0,0.0,9.76168595754,0.770844041309,1.0759223445,-1.0,0.0,0.0,0.0,0.0,0.0,0.0,0.0,0.0
1598621623504151969,4165,1598621623503751092,xsense,-0.65870532147,0.113163622001,-0.720910312636,-0.183274698901,-1.0,0.0,0.0,0.0,0.0,0.0,0.0,0.0,0.0,0.00311076273523,-0.00168035579118,-0.00290852557122,-1.0,0.0,0.0,0.0,0.0,0.0,0.0,0.0,0.0,9.7388811397,0.793613532624,1.04823538207,-1.0,0.0,0.0,0.0,0.0,0.0,0.0,0.0,0.0
1598621623504921691,4166,1598621623504557012,xsense,-0.658714463555,0.113165880427,-0.720899287614,-0.183283813057,-1.0,0.0,0.0,0.0,0.0,0.0,0.0,0.0,0.0,2.14988185439e-05,-0.00159167557193,-0.0014577669319,-1.0,0.0,0.0,0.0,0.0,0.0,0.0,0.0,0.0,9.76395152752,0.767039220129,1.02705917515,-1.0,0.0,0.0,0.0,0.0,0.0,0.0,0.0,0.0
1598621623505800653,4167,1598621623505456365,xsense,-0.658710097466,0.113152405813,-0.720904884147,-0.183285811147,-1.0,0.0,0.0,0.0,0.0,0.0,0.0,0.0,0.0,0.00311734805387,0.00296094940866,-0.00158334749573,-1.0,0.0,0.0,0.0,0.0,0.0,0.0,0.0,0.0,9.76369388714,0.817977036067,1.04717025751,-1.0,0.0,0.0,0.0,0.0,0.0,0.0,0.0,0.0
1598621623506179691,4168,1598621623505833481,xsense,-0.658697174783,0.113148286113,-0.720911275482,-0.183309656498,-1.0,0.0,0.0,0.0,0.0,0.0,0.0,0.0,0.0,-0.00141361390094,0.00445149264325,-0.00328366952564,-1.0,0.0,0.0,0.0,0.0,0.0,0.0,0.0,0.0,9.78598492773,0.771378453726,1.07722873919,-1.0,0.0,0.0,0.0,0.0,0.0,0.0,0.0,0.0
1598621623543998081,4169,1598621623543473159,xsense,-0.658687982702,0.1131554438,-0.720920801077,-0.18330080621,-1.0,0.0,0.0,0.0,0.0,0.0,0.0,0.0,0.0,0.00148367570921,0.0031725230329,0.00295219599809,-1.0,0.0,0.0,0.0,0.0,0.0,0.0,0.0,0.0,9.73831401493,0.769951721626,1.05096189564,-1.0,0.0,0.0,0.0,0.0,0.0,0.0,0.0,0.0
1598621623544630737,4170,1598621623544249690,xsense,-0.65868713415,0.113176382992,-0.720921131937,-0.183289626452,-1.0,0.0,0.0,0.0,0.0,0.0,0.0,0.0,0.0,-0.000106875274336,0.000200691806747,0.00457213979944,-1.0,0.0,0.0,0.0,0.0,0.0,0.0,0.0,0.0,9.76270861095,0.769244446615,1.05229424594,-1.0,0.0,0.0,0.0,0.0,0.0,0.0,0.0,0.0
1598621623547223329,4171,1598621623546771066,xsense,-0.658700861504,0.113185120049,-0.720909184006,-0.183281892367,-1.0,0.0,0.0,0.0,0.0,0.0,0.0,0.0,0.0,0.00146308800001,-0.00299361778031,0.00169337263761,-1.0,0.0,0.0,0.0,0.0,0.0,0.0,0.0,0.0,9.76229748723,0.744627992553,1.05427194433,-1.0,0.0,0.0,0.0,0.0,0.0,0.0,0.0,0.0
1598621623547456745,4172,1598621623547153603,xsense,-0.658699393225,0.113183759795,-0.720910555772,-0.183282613632,-1.0,0.0,0.0,0.0,0.0,0.0,0.0,0.0,0.0,0.00154093953301,0.00151387896887,-2.96227143577e-05,-1.0,0.0,0.0,0.0,0.0,0.0,0.0,0.0,0.0,9.76276157855,0.768880327438,1.05206891803,-1.0,0.0,0.0,0.0,0.0,0.0,0.0,0.0,0.0
1598621623593716248,4173,1598621623593214300,xsense,-0.658688445504,0.113173704903,-0.720922718065,-0.18328032861,-1.0,0.0,0.0,0.0,0.0,0.0,0.0,0.0,0.0,0.00309596720556,0.00455256174324,-0.000125572445187,-1.0,0.0,0.0,0.0,0.0,0.0,0.0,0.0,0.0,9.76455630872,0.740316362842,1.0058803908,-1.0,0.0,0.0,0.0,0.0,0.0,0.0,0.0,0.0
1598621623594288594,4174,1598621623593742777,xsense,-0.658684424786,0.113182802865,-0.720924824603,-0.183280874485,-1.0,0.0,0.0,0.0,0.0,0.0,0.0,0.0,0.0,-2.1560323971e-05,0.00159174625845,0.00145769351935,-1.0,0.0,0.0,0.0,0.0,0.0,0.0,0.0,0.0,9.76225148325,0.744545823523,1.05475584736,-1.0,0.0,0.0,0.0,0.0,0.0,0.0,0.0,0.0
1598621623596463958,4175,1598621623596071044,xsense,-0.658668604483,0.113166566983,-0.72093544098,-0.18330599424,-1.0,0.0,0.0,0.0,0.0,0.0,0.0,0.0,0.0,0.000163372069596,0.00589837397308,-0.00483753282852,-1.0,0.0,0.0,0.0,0.0,0.0,0.0,0.0,0.0,9.76081873002,0.797625841493,1.09946663795,-1.0,0.0,0.0,0.0,0.0,0.0,0.0,0.0,0.0
1598621623597085493,4176,1598621623596709034,xsense,-0.658667135639,0.113165206459,-0.720936813871,-0.183306712592,-1.0,0.0,0.0,0.0,0.0,0.0,0.0,0.0,0.0,0.0015409209011,0.00151390882204,-2.9553289205e-05,-1.0,0.0,0.0,0.0,0.0,0.0,0.0,0.0,0.0,9.78742443263,0.793245195877,1.05241115342,-1.0,0.0,0.0,0.0,0.0,0.0,0.0,0.0,0.0
1598621623597543579,4177,1598621623597231646,xsense,-0.658675417026,0.113172277836,-0.72092983578,-0.183300033871,-1.0,0.0,0.0,0.0,0.0,0.0,0.0,0.0,0.0,0.00147707281071,-0.00146873932185,0.00162721373536,-1.0,0.0,0.0,0.0,0.0,0.0,0.0,0.0,0.0,9.76373889868,0.767073571102,1.0290529632,-1.0,0.0,0.0,0.0,0.0,0.0,0.0,0.0,0.0
1598621623633545279,4178,1598621623633281093,xsense,-0.658679676258,0.113172298151,-0.720928697583,-0.183289192308,-1.0,0.0,0.0,0.0,0.0,0.0,0.0,0.0,0.0,0.0030180083631,4.51581320512e-05,0.00159763842726,-1.0,0.0,0.0,0.0,0.0,0.0,0.0,0.0,0.0,9.76261748649,0.769079898835,1.05325947762,-1.0,0.0,0.0,0.0,0.0,0.0,0.0,0.0,0.0
1598621623634175411,4179,1598621623634014229,xsense,-0.658672756415,0.113169282349,-0.720935028883,-0.183291018925,-1.0,0.0,0.0,0.0,0.0,0.0,0.0,0.0,0.0,0.00155503745353,0.00303868545091,-9.5994670324e-05,-1.0,0.0,0.0,0.0,0.0,0.0,0.0,0.0,0.0,9.76146555719,0.7711718804,1.07768560929,-1.0,0.0,0.0,0.0,0.0,0.0,0.0,0.0,0.0
1598621623634396124,4180,1598621623634166791,xsense,-0.658672761398,0.113169271065,-0.720935038945,-0.183290968409,-1.0,0.0,0.0,0.0,0.0,0.0,0.0,0.0,0.0,0.0,0.0,0.0,-1.0,0.0,0.0,0.0,0.0,0.0,0.0,0.0,0.0,9.78583200005,0.77083610459,1.07900473725,-1.0,0.0,0.0,0.0,0.0,0.0,0.0,0.0,0.0
1598621623634677707,4181,1598621623634450532,xsense,-0.658660451244,0.113187459463,-0.720940381852,-0.183302959065,-1.0,0.0,0.0,0.0,0.0,0.0,0.0,0.0,0.0,-0.00306125785541,0.00313843649916,0.0013175788722,-1.0,0.0,0.0,0.0,0.0,0.0,0.0,0.0,0.0,9.76257917747,0.768963117557,1.05369974041,-1.0,0.0,0.0,0.0,0.0,0.0,0.0,0.0,0.0
1598621623683555760,4182,1598621623683063065,xsense,-0.65867815454,0.113180355316,-0.720928572581,-0.183290177423,-1.0,0.0,0.0,0.0,0.0,0.0,0.0,0.0,0.0,0.00455236355949,-0.0030823815124,0.000243307544177,-1.0,0.0,0.0,0.0,0.0,0.0,0.0,0.0,0.0,9.73865243558,0.793561461665,1.05039737831,-1.0,0.0,0.0,0.0,0.0,0.0,0.0,0.0,0.0
1598621623685962419,4183,1598621623685551639,xsense,-0.658662953118,0.113186417318,-0.720938148921,-0.183303394826,-1.0,0.0,0.0,0.0,0.0,0.0,0.0,0.0,0.0,-0.0014845466372,0.00458532807957,-0.000236081610724,-1.0,0.0,0.0,0.0,0.0,0.0,0.0,0.0,0.0,9.76143462065,0.771052176046,1.07805142048,-1.0,0.0,0.0,0.0,0.0,0.0,0.0,0.0,0.0
1598621623686852698,4184,1598621623686407735,xsense,-0.658669482247,0.113176266114,-0.720933818405,-0.183303233537,-1.0,0.0,0.0,0.0,0.0,0.0,0.0,0.0,0.0,0.0030894756684,-8.88540296786e-05,-0.00145032332651,-1.0,0.0,0.0,0.0,0.0,0.0,0.0,0.0,0.0,9.78807288318,0.766510628298,1.03085650453,-1.0,0.0,0.0,0.0,0.0,0.0,0.0,0.0,0.0
1598621623687495109,4185,1598621623687152578,xsense,-0.658666871462,0.113180003887,-0.720936778133,-0.183298666371,-1.0,0.0,0.0,0.0,0.0,0.0,0.0,0.0,0.0,0.00150518846796,0.00158091496714,0.00149446411179,-1.0,0.0,0.0,0.0,0.0,0.0,0.0,0.0,0.0,9.76139600434,0.771165754651,1.07831979825,-1.0,0.0,0.0,0.0,0.0,0.0,0.0,0.0,0.0
1598621623687919355,4186,1598621623687719181,xsense,-0.658659954069,0.113176977491,-0.720943120616,-0.183300446014,-1.0,0.0,0.0,0.0,0.0,0.0,0.0,0.0,0.0,0.00155506936616,0.00303867704371,-9.60153573525e-05,-1.0,0.0,0.0,0.0,0.0,0.0,0.0,0.0,0.0,9.76297096716,0.793288640489,1.05211688331,-1.0,0.0,0.0,0.0,0.0,0.0,0.0,0.0,0.0
1598621623723232997,4187,1598621623722833767,xsense,-0.65866392606,0.113177295803,-0.720939514306,-0.183300160759,-1.0,0.0,0.0,0.0,0.0,0.0,0.0,0.0,0.0,0.00152685759093,-1.09225013139e-05,3.68930879194e-05,-1.0,0.0,0.0,0.0,0.0,0.0,0.0,0.0,0.0,9.76250396173,0.768990426398,1.0543764629,-1.0,0.0,0.0,0.0,0.0,0.0,0.0,0.0,0.0
1598621623724241122,4188,1598621623723928058,xsense,-0.658662734932,0.113175651368,-0.720943347038,-0.183290381392,-1.0,0.0,0.0,0.0,0.0,0.0,0.0,0.0,0.0,0.00303202756756,0.00157001844421,0.00153135648722,-1.0,0.0,0.0,0.0,0.0,0.0,0.0,0.0,0.0,9.76295282095,0.793255173016,1.05231048214,-1.0,0.0,0.0,0.0,0.0,0.0,0.0,0.0,0.0
1598621623724720479,4189,1598621623724449638,xsense,-0.658659506951,0.113157089333,-0.720947345035,-0.18329771609,-1.0,0.0,0.0,0.0,0.0,0.0,0.0,0.0,0.0,0.00315357439955,0.00289356085938,-0.00310723461935,-1.0,0.0,0.0,0.0,0.0,0.0,0.0,0.0,0.0,9.78914474522,0.764409661851,1.00722346695,-1.0,0.0,0.0,0.0,0.0,0.0,0.0,0.0,0.0
1598621623725265698,4190,1598621623724993339,xsense,-0.658669209396,0.113158779681,-0.72094123859,-0.18328582508,-1.0,0.0,0.0,0.0,0.0,0.0,0.0,0.0,0.0,0.00300379026443,-0.00147950465812,0.0016644011098,-1.0,0.0,0.0,0.0,0.0,0.0,0.0,0.0,0.0,9.76290991709,0.79346748457,1.05254843475,-1.0,0.0,0.0,0.0,0.0,0.0,0.0,0.0,0.0
1598621623763752898,4191,1598621623763524859,xsense,-0.658667174061,0.113158001665,-0.7209376823,-0.183307606809,-1.0,0.0,0.0,0.0,0.0,0.0,0.0,0.0,0.0,-0.0014411106064,0.00140145229129,-0.00315151614778,-1.0,0.0,0.0,0.0,0.0,0.0,0.0,0.0,0.0,9.73852139045,0.793896908327,1.05135842277,-1.0,0.0,0.0,0.0,0.0,0.0,0.0,0.0,0.0
1598621623764938795,4192,1598621623764559243,xsense,-0.658677156434,0.11315940778,-0.720934034321,-0.18328521539,-1.0,0.0,0.0,0.0,0.0,0.0,0.0,0.0,0.0,0.00449483217532,-0.00142324349021,0.00322537156766,-1.0,0.0,0.0,0.0,0.0,0.0,0.0,0.0,0.0,9.78843282673,0.791066489349,1.02941262504,-1.0,0.0,0.0,0.0,0.0,0.0,0.0,0.0,0.0
1598621623765390264,4193,1598621623765036750,xsense,-0.658674545339,0.113163145432,-0.720936994251,-0.18328064862,-1.0,0.0,0.0,0.0,0.0,0.0,0.0,0.0,0.0,0.00150515322222,0.00158103343593,0.00149438967878,-1.0,0.0,0.0,0.0,0.0,0.0,0.0,0.0,0.0,9.76361650497,0.766898494456,1.03034391761,-1.0,0.0,0.0,0.0,0.0,0.0,0.0,0.0,0.0
1598621623765836848,4194,1598621623765513561,xsense,-0.658677385176,0.113168541732,-0.720934991921,-0.183274986956,-1.0,0.0,0.0,0.0,0.0,0.0,0.0,0.0,0.0,0.00149103189089,5.62383048745e-05,0.00156095984681,-1.0,0.0,0.0,0.0,0.0,0.0,0.0,0.0,0.0,9.7624746963,0.768911591394,1.05470487553,-1.0,0.0,0.0,0.0,0.0,0.0,0.0,0.0,0.0
1598621623804001766,4195,1598621623803519622,xsense,-0.658674774033,0.113172279325,-0.720937951787,-0.183270420194,-1.0,0.0,0.0,0.0,0.0,0.0,0.0,0.0,0.0,0.00150516770097,0.00158103422159,0.00149437879477,-1.0,0.0,0.0,0.0,0.0,0.0,0.0,0.0,0.0,9.76202588251,0.744461313207,1.05690133163,-1.0,0.0,0.0,0.0,0.0,0.0,0.0,0.0,0.0
1598621623804515010,4196,1598621623804067611,xsense,-0.658675580001,0.113160747308,-0.720936126313,-0.183281824945,-1.0,0.0,0.0,0.0,0.0,0.0,0.0,0.0,0.0,0.00161269171304,0.00137945968873,-0.00307770840127,-1.0,0.0,0.0,0.0,0.0,0.0,0.0,0.0,0.0,9.7608587121,0.74670264093,1.0813266538,-1.0,0.0,0.0,0.0,0.0,0.0,0.0,0.0,0.0
1598621623806526846,4197,1598621623806161649,xsense,-0.658669517351,0.113152928897,-0.720938400072,-0.183299495081,-1.0,0.0,0.0,0.0,0.0,0.0,0.0,0.0,0.0,9.99572574067e-05,0.00291518459591,-0.00318126539707,-1.0,0.0,0.0,0.0,0.0,0.0,0.0,0.0,0.0,9.76286043452,0.793503438633,1.0529802211,-1.0,0.0,0.0,0.0,0.0,0.0,0.0,0.0,0.0
1598621623807033088,4198,1598621623806686508,xsense,-0.658672931742,0.113153808769,-0.720929882978,-0.183320179963,-1.0,0.0,0.0,0.0,0.0,0.0,0.0,0.0,0.0,-0.00145510597398,-0.000123500990065,-0.00308502998886,-1.0,0.0,0.0,0.0,0.0,0.0,0.0,0.0,0.0,9.76167424277,0.795949726509,1.07741425385,-1.0,0.0,0.0,0.0,0.0,0.0,0.0,0.0,0.0
1598621623853309970,4199,1598621623852770863,xsense,-0.658685184756,0.113145050954,-0.720923031842,-0.183308502221,-1.0,0.0,0.0,0.0,0.0,0.0,0.0,0.0,0.0,0.00456650936259,-0.00155743730452,0.000177516861983,-1.0,0.0,0.0,0.0,0.0,0.0,0.0,0.0,0.0,9.76396463164,0.791812596435,1.02873511049,-1.0,0.0,0.0,0.0,0.0,0.0,0.0,0.0,0.0
1598621623853713494,4200,1598621623853402594,xsense,-0.658686604438,0.113155820611,-0.720920169086,-0.183308011826,-1.0,0.0,0.0,0.0,0.0,0.0,0.0,0.0,0.0,-3.58663769937e-05,6.72255150116e-05,0.0015240265938,-1.0,0.0,0.0,0.0,0.0,0.0,0.0,0.0,0.0,9.76283277893,0.793901290902,1.05293673826,-1.0,0.0,0.0,0.0,0.0,0.0,0.0,0.0,0.0
1598621623855942922,4201,1598621623855597989,xsense,-0.658677409816,0.113162977492,-0.720929696009,-0.183299164578,-1.0,0.0,0.0,0.0,0.0,0.0,0.0,0.0,0.0,0.00148331482186,0.00317314923504,0.00295175965137,-1.0,0.0,0.0,0.0,0.0,0.0,0.0,0.0,0.0,9.76168688369,0.795839092064,1.07738145263,-1.0,0.0,0.0,0.0,0.0,0.0,0.0,0.0,0.0
1598621623856587343,4202,1598621623856172432,xsense,-0.658668216864,0.113170127726,-0.720939229678,-0.183290287235,-1.0,0.0,0.0,0.0,0.0,0.0,0.0,0.0,0.0,0.00148331943006,0.00317315174351,0.0029517605129,-1.0,0.0,0.0,0.0,0.0,0.0,0.0,0.0,0.0,9.76237198601,0.76910109108,1.05551709424,-1.0,0.0,0.0,0.0,0.0,0.0,0.0,0.0,0.0
1598621623857162303,4203,1598621623856736828,xsense,-0.658666743073,0.113168778506,-0.720940591994,-0.183291058036,-1.0,0.0,0.0,0.0,0.0,0.0,0.0,0.0,0.0,0.00154100336347,0.00151385830642,-2.96382659972e-05,-1.0,0.0,0.0,0.0,0.0,0.0,0.0,0.0,0.0,9.76305442218,0.742508232034,1.03357235554,-1.0,0.0,0.0,0.0,0.0,0.0,0.0,0.0,0.0
1598621623892744072,4204,1598621623892401382,xsense,-0.658666745623,0.113168771181,-0.720940599298,-0.183291024668,-1.0,0.0,0.0,0.0,0.0,0.0,0.0,0.0,0.0,0.0,0.0,0.0,-1.0,0.0,0.0,0.0,0.0,0.0,0.0,0.0,0.0,9.76120234845,0.771133629175,1.08009434651,-1.0,0.0,0.0,0.0,0.0,0.0,0.0,0.0,0.0
1598621623893956003,4205,1598621623893529742,xsense,-0.658674745484,0.113176129718,-0.720931162524,-0.183294850517,-1.0,0.0,0.0,0.0,0.0,0.0,0.0,0.0,0.0,-1.41403184635e-05,-0.00152479373222,6.66620631781e-05,-1.0,0.0,0.0,0.0,0.0,0.0,0.0,0.0,0.0,9.7619067732,0.744663941925,1.05785829203,-1.0,0.0,0.0,0.0,0.0,0.0,0.0,0.0,0.0
1598621623894448388,4206,1598621623894086792,xsense,-0.658664376538,0.113161547734,-0.720936815321,-0.183318879301,-1.0,0.0,0.0,0.0,0.0,0.0,0.0,0.0,0.0,0.000150155853955,0.00437259706105,-0.00477205860143,-1.0,0.0,0.0,0.0,0.0,0.0,0.0,0.0,0.0,9.73909092761,0.767410367857,1.03039080086,-1.0,0.0,0.0,0.0,0.0,0.0,0.0,0.0,0.0
1598621623897161282,4207,1598621623896790315,xsense,-0.65866579274,0.113172325506,-0.720933945272,-0.183318424516,-1.0,0.0,0.0,0.0,0.0,0.0,0.0,0.0,0.0,-3.5946557184e-05,6.72616655886e-05,0.00152402330135,-1.0,0.0,0.0,0.0,0.0,0.0,0.0,0.0,0.0,9.78667246708,0.769021697038,1.05726654879,-1.0,0.0,0.0,0.0,0.0,0.0,0.0,0.0,0.0
1598621623933159017,4208,1598621623932654612,xsense,-0.658661430373,0.113158841599,-0.72093954889,-0.183320384991,-1.0,0.0,0.0,0.0,0.0,0.0,0.0,0.0,0.0,0.00311791111018,0.00296050673452,-0.00158325546998,-1.0,0.0,0.0,0.0,0.0,0.0,0.0,0.0,0.0,9.7604260844,0.798006063921,1.10267179436,-1.0,0.0,0.0,0.0,0.0,0.0,0.0,0.0,0.0
1598621623933904582,4209,1598621623933403460,xsense,-0.658665682158,0.113158875808,-0.720938402905,-0.18330959383,-1.0,0.0,0.0,0.0,0.0,0.0,0.0,0.0,0.0,0.00301775837804,4.54901887376e-05,0.0015981600489,-1.0,0.0,0.0,0.0,0.0,0.0,0.0,0.0,0.0,9.76340713109,0.767270328832,1.0320496979,-1.0,0.0,0.0,0.0,0.0,0.0,0.0,0.0,0.0
1598621623935794476,4210,1598621623935635300,xsense,-0.658668516411,0.113164274751,-0.720936404023,-0.18330393821,-1.0,0.0,0.0,0.0,0.0,0.0,0.0,0.0,0.0,0.00149089574206,5.64000045199e-05,0.00156109061223,-1.0,0.0,0.0,0.0,0.0,0.0,0.0,0.0,0.0,9.76272066333,0.793607258297,1.05419716986,-1.0,0.0,0.0,0.0,0.0,0.0,0.0,0.0,0.0
1598621623936731091,4211,1598621623936285304,xsense,-0.658665904601,0.113168012549,-0.720939364496,-0.183299371991,-1.0,0.0,0.0,0.0,0.0,0.0,0.0,0.0,0.0,0.00150502940187,0.001581193229,0.00149437073381,-1.0,0.0,0.0,0.0,0.0,0.0,0.0,0.0,0.0,9.76272415459,0.793473901769,1.0542652198,-1.0,0.0,0.0,0.0,0.0,0.0,0.0,0.0,0.0
1598621623963363605,4212,1598621623962896229,xsense,-0.658669876329,0.113168325505,-0.720935766477,-0.183299058191,-1.0,0.0,0.0,0.0,0.0,0.0,0.0,0.0,0.0,0.00152686524355,-1.09309093375e-05,3.70826772019e-05,-1.0,0.0,0.0,0.0,0.0,0.0,0.0,0.0,0.0,9.78620061872,0.744432752839,1.05978064875,-1.0,0.0,0.0,0.0,0.0,0.0,0.0,0.0,0.0
1598621623965514913,4213,1598621623965165165,xsense,-0.658673848202,0.11316864443,-0.720932160268,-0.183298772238,-1.0,0.0,0.0,0.0,0.0,0.0,0.0,0.0,0.0,0.0015268657567,-1.09306297271e-05,3.70827731671e-05,-1.0,0.0,0.0,0.0,0.0,0.0,0.0,0.0,0.0,9.76227029682,0.769111121049,1.05644987549,-1.0,0.0,0.0,0.0,0.0,0.0,0.0,0.0,0.0
1598621623966079408,4214,1598621623965715293,xsense,-0.658674929707,0.113156829643,-0.720932795618,-0.18329968108,-1.0,0.0,0.0,0.0,0.0,0.0,0.0,0.0,0.0,0.00310385837153,0.00143557524957,-0.00151660734638,-1.0,0.0,0.0,0.0,0.0,0.0,0.0,0.0,0.0,9.76180518122,0.744891359734,1.05863538075,-1.0,0.0,0.0,0.0,0.0,0.0,0.0,0.0,0.0
1598621624004029200,4215,1598621624003613778,xsense,-0.658682070752,0.1131689912,-0.720927417411,-0.183287664415,-1.0,0.0,0.0,0.0,0.0,0.0,0.0,0.0,0.0,0.00144075080036,-0.0014009496974,0.00315190698224,-1.0,0.0,0.0,0.0,0.0,0.0,0.0,0.0,0.0,9.73833251783,0.793817668398,1.05316617296,-1.0,0.0,0.0,0.0,0.0,0.0,0.0,0.0,0.0
1598621624004361613,4216,1598621624004185060,xsense,-0.658699488504,0.113162181537,-0.720913147129,-0.183285402612,-1.0,0.0,0.0,0.0,0.0,0.0,0.0,0.0,0.0,0.0030614001551,-0.00313885140015,-0.00131627086767,-1.0,0.0,0.0,0.0,0.0,0.0,0.0,0.0,0.0,9.76229422568,0.769086166254,1.05624691033,-1.0,0.0,0.0,0.0,0.0,0.0,0.0,0.0,0.0
1598621624006906220,4217,1598621624006537965,xsense,-0.65868428841,0.113168238321,-0.720922722792,-0.183298624653,-1.0,0.0,0.0,0.0,0.0,0.0,0.0,0.0,0.0,-0.00148442934657,0.00458529567684,-0.000237498737883,-1.0,0.0,0.0,0.0,0.0,0.0,0.0,0.0,0.0,9.78781305828,0.766666761107,1.03320475779,-1.0,0.0,0.0,0.0,0.0,0.0,0.0,0.0,0.0
1598621624007328506,4218,1598621624007012529,xsense,-0.658689398028,0.113163463365,-0.720917527593,-0.183303643973,-1.0,0.0,0.0,0.0,0.0,0.0,0.0,0.0,0.0,0.00156285899378,-7.83310248194e-05,-0.00148692133778,-1.0,0.0,0.0,0.0,0.0,0.0,0.0,0.0,0.0,9.73901763321,0.767449722983,1.03105402515,-1.0,0.0,0.0,0.0,0.0,0.0,0.0,0.0,0.0
1598621624052849344,4219,1598621624052338006,xsense,-0.658695925765,0.113153323546,-0.720913184814,-0.183303526185,-1.0,0.0,0.0,0.0,0.0,0.0,0.0,0.0,0.0,0.00308972918791,-8.92469841461e-05,-0.00144982657266,-1.0,0.0,0.0,0.0,0.0,0.0,0.0,0.0,0.0,9.73945880726,0.791932995164,1.02889237095,-1.0,0.0,0.0,0.0,0.0,0.0,0.0,0.0,0.0
1598621624053169488,4220,1598621624052918960,xsense,-0.658690145606,0.113145211612,-0.720917925115,-0.183310660955,-1.0,0.0,0.0,0.0,0.0,0.0,0.0,0.0,0.0,0.00159111160662,0.00297123540691,-0.0016205933951,-1.0,0.0,0.0,0.0,0.0,0.0,0.0,0.0,0.0,9.7608139596,0.822540680587,1.10093831742,-1.0,0.0,0.0,0.0,0.0,0.0,0.0,0.0,0.0
1598621624055566829,4221,1598621624055188726,xsense,-0.658697006589,0.113157658007,-0.720910086998,-0.183309149826,-1.0,0.0,0.0,0.0,0.0,0.0,0.0,0.0,0.0,-5.01288395234e-05,-0.00145733955515,0.00159086182893,-1.0,0.0,0.0,0.0,0.0,0.0,0.0,0.0,0.0,9.7870386094,0.793574976697,1.05574533753,-1.0,0.0,0.0,0.0,0.0,0.0,0.0,0.0,0.0
1598621624055737487,4222,1598621624055552514,xsense,-0.658690139483,0.113177505551,-0.720910469336,-0.183320068697,-1.0,0.0,0.0,0.0,0.0,0.0,0.0,0.0,0.0,-0.00307561559768,0.00161404510025,0.00138295418756,-1.0,0.0,0.0,0.0,0.0,0.0,0.0,0.0,0.0,9.74058567505,0.789799870285,1.00481030232,-1.0,0.0,0.0,0.0,0.0,0.0,0.0,0.0,0.0
1598621624056381404,4223,1598621624056099091,xsense,-0.658689277699,0.113198457908,-0.720910796584,-0.183308941245,-1.0,0.0,0.0,0.0,0.0,0.0,0.0,0.0,0.0,-0.000108040580761,0.000202278180595,0.0045720442332,-1.0,0.0,0.0,0.0,0.0,0.0,0.0,0.0,0.0,9.78730984482,0.742317345164,1.03584661634,-1.0,0.0,0.0,0.0,0.0,0.0,0.0,0.0,0.0
1598621624093089496,4224,1598621624092686616,xsense,-0.658682080547,0.113195718569,-0.720914672569,-0.183321250647,-1.0,0.0,0.0,0.0,0.0,0.0,0.0,0.0,0.0,6.43577811963e-05,0.0029821517134,-0.00165766198813,-1.0,0.0,0.0,0.0,0.0,0.0,0.0,0.0,0.0,9.7633742134,0.76684052604,1.03268036126,-1.0,0.0,0.0,0.0,0.0,0.0,0.0,0.0,0.0
1598621624093494920,4225,1598621624093266127,xsense,-0.658683442717,0.113183626324,-0.720917759163,-0.18331168415,-1.0,0.0,0.0,0.0,0.0,0.0,0.0,0.0,0.0,0.00459476664065,0.00149197713825,4.46030769019e-05,-1.0,0.0,0.0,0.0,0.0,0.0,0.0,0.0,0.0,9.76174046361,0.744782533627,1.05930850048,-1.0,0.0,0.0,0.0,0.0,0.0,0.0,0.0,0.0
1598621624094526639,4226,1598621624094218221,xsense,-0.658688554463,0.113178852309,-0.720912560921,-0.183316707137,-1.0,0.0,0.0,0.0,0.0,0.0,0.0,0.0,0.0,0.00156291728775,-7.83976675302e-05,-0.00148685827165,-1.0,0.0,0.0,0.0,0.0,0.0,0.0,0.0,0.0,9.76102799152,0.771357858461,1.08150902172,-1.0,0.0,0.0,0.0,0.0,0.0,0.0,0.0,0.0
1598621624095011975,4227,1598621624094737856,xsense,-0.658694803437,0.113168996847,-0.720905757198,-0.183327093785,-1.0,0.0,0.0,0.0,0.0,0.0,0.0,0.0,0.0,0.00159896740807,-0.00014586946319,-0.00301086974284,-1.0,0.0,0.0,0.0,0.0,0.0,0.0,0.0,0.0,9.76216392666,0.769437950691,1.05719455225,-1.0,0.0,0.0,0.0,0.0,0.0,0.0,0.0,0.0
1598621624133267461,4228,1598621624132939722,xsense,-0.658700192795,0.113163939126,-0.72090302076,-0.183321612347,-1.0,0.0,0.0,0.0,0.0,0.0,0.0,0.0,0.0,0.00305374139383,-2.18015400658e-05,7.43055916728e-05,-1.0,0.0,0.0,0.0,0.0,0.0,0.0,0.0,0.0,9.76330559686,0.767448814541,1.03287718631,-1.0,0.0,0.0,0.0,0.0,0.0,0.0,0.0,0.0
1598621624134566882,4229,1598621624134202796,xsense,-0.658690996263,0.113171095283,-0.720912549271,-0.183312768072,-1.0,0.0,0.0,0.0,0.0,0.0,0.0,0.0,0.0,0.0014830330079,0.00317368780898,0.00295136149247,-1.0,0.0,0.0,0.0,0.0,0.0,0.0,0.0,0.0,9.76375285875,0.791640574756,1.03087524341,-1.0,0.0,0.0,0.0,0.0,0.0,0.0,0.0,0.0
1598621624135327936,4230,1598621624134900560,xsense,-0.658678354091,0.113166686058,-0.720921393624,-0.183326133526,-1.0,0.0,0.0,0.0,0.0,0.0,0.0,0.0,0.0,7.85339772345e-05,0.00450684057045,-0.00172475935763,-1.0,0.0,0.0,0.0,0.0,0.0,0.0,0.0,0.0,9.76301692742,0.818062587782,1.05339659619,-1.0,0.0,0.0,0.0,0.0,0.0,0.0,0.0,0.0
1598621624138630168,4231,1598621624138329191,xsense,-0.658679769056,0.11317746415,-0.720918524267,-0.183325679636,-1.0,0.0,0.0,0.0,0.0,0.0,0.0,0.0,0.0,-3.61064038074e-05,6.75196802364e-05,0.00152400830633,-1.0,0.0,0.0,0.0,0.0,0.0,0.0,0.0,0.0,9.73770505236,0.769789415509,1.05670760874,-1.0,0.0,0.0,0.0,0.0,0.0,0.0,0.0,0.0
1598621624174225423,4232,1598621624173797572,xsense,-0.658672571449,0.113174724732,-0.720922399221,-0.183337992799,-1.0,0.0,0.0,0.0,0.0,0.0,0.0,0.0,0.0,6.44173045964e-05,0.00298205502955,-0.00165784130152,-1.0,0.0,0.0,0.0,0.0,0.0,0.0,0.0,0.0,9.73814062635,0.794112094697,1.05471741677,-1.0,0.0,0.0,0.0,0.0,0.0,0.0,0.0,0.0
1598621624176485087,4233,1598621624176079252,xsense,-0.658684545257,0.113166254853,-0.720913088015,-0.183336816079,-1.0,0.0,0.0,0.0,0.0,0.0,0.0,0.0,0.0,0.00307572651157,-0.00161412313081,-0.00138262074437,-1.0,0.0,0.0,0.0,0.0,0.0,0.0,0.0,0.0,9.76205205558,0.76961228581,1.05810028019,-1.0,0.0,0.0,0.0,0.0,0.0,0.0,0.0,0.0
1598621624177055638,4234,1598621624176708949,xsense,-0.658688517124,0.113166570702,-0.720909486767,-0.18333651184,-1.0,0.0,0.0,0.0,0.0,0.0,0.0,0.0,0.0,0.00152687133628,-1.08964252566e-05,3.72230766863e-05,-1.0,0.0,0.0,0.0,0.0,0.0,0.0,0.0,0.0,9.76436407149,0.765384797797,1.00942120268,-1.0,0.0,0.0,0.0,0.0,0.0,0.0,0.0,0.0
1598621624177825016,4235,1598621624177381143,xsense,-0.658681597991,0.113163551855,-0.720915817497,-0.18333834046,-1.0,0.0,0.0,0.0,0.0,0.0,0.0,0.0,0.0,0.00155513889889,0.00303867642915,-9.66806003039e-05,-1.0,0.0,0.0,0.0,0.0,0.0,0.0,0.0,0.0,9.76319389502,0.767562382949,1.03384820249,-1.0,0.0,0.0,0.0,0.0,0.0,0.0,0.0,0.0
1598621624178258519,4236,1598621624177970377,xsense,-0.658673541854,0.113165615973,-0.720923751203,-0.183334812775,-1.0,0.0,0.0,0.0,0.0,0.0,0.0,0.0,0.0,0.00151900001464,0.00310624408718,0.00142732519425,-1.0,0.0,0.0,0.0,0.0,0.0,0.0,0.0,0.0,9.76432263147,0.765353811664,1.0098454701,-1.0,0.0,0.0,0.0,0.0,0.0,0.0,0.0,0.0
1598621624223930111,4237,1598621624223564299,xsense,-0.658673485916,0.113158895324,-0.720925975689,-0.18333041465,-1.0,0.0,0.0,0.0,0.0,0.0,0.0,0.0,0.0,0.00306789137515,0.00150297609247,7.56643132144e-06,-1.0,0.0,0.0,0.0,0.0,0.0,0.0,0.0,0.0,9.7376104705,0.769975568279,1.05744330819,-1.0,0.0,0.0,0.0,0.0,0.0,0.0,0.0,0.0
1598621624224371731,4238,1598621624224089877,xsense,-0.658666570564,0.11315587161,-0.72093230891,-0.183332221698,-1.0,0.0,0.0,0.0,0.0,0.0,0.0,0.0,0.0,0.00155517013799,0.00303866698857,-9.67131082488e-05,-1.0,0.0,0.0,0.0,0.0,0.0,0.0,0.0,0.0,9.7619685756,0.76965589143,1.05883849047,-1.0,0.0,0.0,0.0,0.0,0.0,0.0,0.0,0.0
1598621624225228921,4239,1598621624225013413,xsense,-0.658675987601,0.113157860806,-0.72092373474,-0.183330877333,-1.0,0.0,0.0,0.0,0.0,0.0,0.0,0.0,0.0,0.00151272297225,-0.00153568794699,0.000104314943834,-1.0,0.0,0.0,0.0,0.0,0.0,0.0,0.0,0.0,9.73757819329,0.770020208476,1.05770799842,-1.0,0.0,0.0,0.0,0.0,0.0,0.0,0.0,0.0
1598621624225817594,4240,1598621624225496730,xsense,-0.658680240874,0.113157892464,-0.720922593419,-0.18332006424,-1.0,0.0,0.0,0.0,0.0,0.0,0.0,0.0,0.0,0.00301755981911,4.58193788579e-05,0.00159859003796,-1.0,0.0,0.0,0.0,0.0,0.0,0.0,0.0,0.0,9.73874910705,0.767799687504,1.03332734835,-1.0,0.0,0.0,0.0,0.0,0.0,0.0,0.0,0.0
1598621624264077593,4241,1598621624263664681,xsense,-0.658673043258,0.1131551566,-0.720926462546,-0.183332398175,-1.0,0.0,0.0,0.0,0.0,0.0,0.0,0.0,0.0,6.45111214146e-05,0.00298191892842,-0.00165808845538,-1.0,0.0,0.0,0.0,0.0,0.0,0.0,0.0,0.0,9.76195882963,0.769631850007,1.05894581431,-1.0,0.0,0.0,0.0,0.0,0.0,0.0,0.0,0.0
1598621624265102048,4242,1598621624264807376,xsense,-0.65867815733,0.113150384032,-0.720921260617,-0.183337425641,-1.0,0.0,0.0,0.0,0.0,0.0,0.0,0.0,0.0,0.00156308427323,-7.85497415093e-05,-0.00148668244688,-1.0,0.0,0.0,0.0,0.0,0.0,0.0,0.0,0.0,9.76469788302,0.789785365126,1.00835727997,-1.0,0.0,0.0,0.0,0.0,0.0,0.0,0.0,0.0
1598621624267980950,4243,1598621624267528805,xsense,-0.65868326811,0.113145616248,-0.720916055292,-0.183342474779,-1.0,0.0,0.0,0.0,0.0,0.0,0.0,0.0,0.0,0.00156308530304,-7.85491794415e-05,-0.00148668225555,-1.0,0.0,0.0,0.0,0.0,0.0,0.0,0.0,0.0,9.76237243872,0.794271262173,1.05691836672,-1.0,0.0,0.0,0.0,0.0,0.0,0.0,0.0,0.0
1598621624268526498,4244,1598621624268181773,xsense,-0.65869154993,0.113152689045,-0.720909081828,-0.183335775968,-1.0,0.0,0.0,0.0,0.0,0.0,0.0,0.0,0.0,0.00147653586326,-0.00146798932202,0.00162838361707,-1.0,0.0,0.0,0.0,0.0,0.0,0.0,0.0,0.0,9.73638997129,0.772475503409,1.08207249366,-1.0,0.0,0.0,0.0,0.0,0.0,0.0,0.0,0.0
1598621624303613806,4245,1598621624303105761,xsense,-0.658694382005,0.113158096497,-0.720907075258,-0.183330153427,-1.0,0.0,0.0,0.0,0.0,0.0,0.0,0.0,0.0,0.00149067685317,5.67936973732e-05,0.00156130448796,-1.0,0.0,0.0,0.0,0.0,0.0,0.0,0.0,0.0,9.76426292727,0.765498385056,1.01031306281,-1.0,0.0,0.0,0.0,0.0,0.0,0.0,0.0,0.0
1598621624304227823,4246,1598621624303674396,xsense,-0.658687467945,0.113155072689,-0.720913406887,-0.183331963572,-1.0,0.0,0.0,0.0,0.0,0.0,0.0,0.0,0.0,0.00155518026206,0.00303866316481,-9.68749378378e-05,-1.0,0.0,0.0,0.0,0.0,0.0,0.0,0.0,0.0,9.73755604416,0.770117852449,1.05784081343,-1.0,0.0,0.0,0.0,0.0,0.0,0.0,0.0,0.0
1598621624306303635,4247,1598621624305898231,xsense,-0.658688882131,0.113165851025,-0.720910538154,-0.183331510378,-1.0,0.0,0.0,0.0,0.0,0.0,0.0,0.0,0.0,-3.62212833369e-05,6.77069043025e-05,0.00152399727474,-1.0,0.0,0.0,0.0,0.0,0.0,0.0,0.0,0.0,9.76218010525,0.718913104992,1.03917773631,-1.0,0.0,0.0,0.0,0.0,0.0,0.0,0.0,0.0
1598621624306944395,4248,1598621624306533559,xsense,-0.658690249061,0.113153754162,-0.72091362725,-0.183321918376,-1.0,0.0,0.0,0.0,0.0,0.0,0.0,0.0,0.0,0.00459479390665,0.00149204922142,4.48891056189e-05,-1.0,0.0,0.0,0.0,0.0,0.0,0.0,0.0,0.0,9.78862317653,0.764978032446,1.01185028049,-1.0,0.0,0.0,0.0,0.0,0.0,0.0,0.0,0.0
1598621624353332391,4249,1598621624352776513,xsense,-0.658690776306,0.113142511778,-0.720909328585,-0.18334386599,-1.0,0.0,0.0,0.0,0.0,0.0,0.0,0.0,0.0,0.000122865652561,0.00132155560422,-0.00463912273763,-1.0,0.0,0.0,0.0,0.0,0.0,0.0,0.0,0.0,9.73751032119,0.770252774144,1.05816342165,-1.0,0.0,0.0,0.0,0.0,0.0,0.0,0.0,0.0
1598621624353677521,4250,1598621624353460284,xsense,-0.658690448176,0.113136068234,-0.720909093068,-0.183349947039,-1.0,0.0,0.0,0.0,0.0,0.0,0.0,0.0,0.0,0.00157725472517,0.00144616558571,-0.00155378005912,-1.0,0.0,0.0,0.0,0.0,0.0,0.0,0.0,0.0,9.76301274079,0.768050872434,1.03519526017,-1.0,0.0,0.0,0.0,0.0,0.0,0.0,0.0,0.0
1598621624356290746,4251,1598621624355802671,xsense,-0.658701004192,0.113132970364,-0.720898919151,-0.18335393767,-1.0,0.0,0.0,0.0,0.0,0.0,0.0,0.0,0.0,0.00154901490268,-0.00160339522087,-0.00141948117064,-1.0,0.0,0.0,0.0,0.0,0.0,0.0,0.0,0.0,9.78667705083,0.794346052838,1.05851351196,-1.0,0.0,0.0,0.0,0.0,0.0,0.0,0.0,0.0
1598621624356676394,4252,1598621624356301799,xsense,-0.658707539437,0.113122826287,-0.720894576512,-0.183353792483,-1.0,0.0,0.0,0.0,0.0,0.0,0.0,0.0,0.0,0.00309000385401,-8.94646070166e-05,-0.0014492907475,-1.0,0.0,0.0,0.0,0.0,0.0,0.0,0.0,0.0,9.73675143443,0.79737011984,1.0803150701,-1.0,0.0,0.0,0.0,0.0,0.0,0.0,0.0,0.0
1598621624357324468,4253,1598621624356950983,xsense,-0.658703786323,0.11313165195,-0.720899138662,-0.183343892963,-1.0,0.0,0.0,0.0,0.0,0.0,0.0,0.0,0.0,0.00146848502552,0.0016495156847,0.00301815160134,-1.0,0.0,0.0,0.0,0.0,0.0,0.0,0.0,0.0,9.78783114299,0.792291781613,1.03418034954,-1.0,0.0,0.0,0.0,0.0,0.0,0.0,0.0,0.0
1598621624393284986,4254,1598621624392804715,xsense,-0.658691149871,0.113127240256,-0.720907975724,-0.183357266372,-1.0,0.0,0.0,0.0,0.0,0.0,0.0,0.0,0.0,7.86252594316e-05,0.00450653836067,-0.00172557909807,-1.0,0.0,0.0,0.0,0.0,0.0,0.0,0.0,0.0,9.76342207732,0.792583409872,1.03328086091,-1.0,0.0,0.0,0.0,0.0,0.0,0.0,0.0,0.0
1598621624394296658,4255,1598621624393940028,xsense,-0.658685116918,0.113146241722,-0.720915737559,-0.183336695933,-1.0,0.0,0.0,0.0,0.0,0.0,0.0,0.0,0.0,0.00139582412682,0.00178513189409,0.00606616735419,-1.0,0.0,0.0,0.0,0.0,0.0,0.0,0.0,0.0,9.76179502203,0.770230866086,1.06001980884,-1.0,0.0,0.0,0.0,0.0,0.0,0.0,0.0,0.0
1598621624394720940,4256,1598621624394470146,xsense,-0.658680813825,0.113155628759,-0.720915374753,-0.183347788706,-1.0,0.0,0.0,0.0,0.0,0.0,0.0,0.0,0.0,-0.00151271876164,0.00153567286544,-0.00010461819965,-1.0,0.0,0.0,0.0,0.0,0.0,0.0,0.0,0.0,9.76134787014,0.745624057996,1.06232995053,-1.0,0.0,0.0,0.0,0.0,0.0,0.0,0.0,0.0
1598621624395149754,4257,1598621624394852539,xsense,-0.658689368322,0.11316242435,-0.720910862634,-0.183330602769,-1.0,0.0,0.0,0.0,0.0,0.0,0.0,0.0,0.0,0.00296697031992,-0.00141096381407,0.00319002380412,-1.0,0.0,0.0,0.0,0.0,0.0,0.0,0.0,0.0,9.73581611877,0.747996864041,1.08542477896,-1.0,0.0,0.0,0.0,0.0,0.0,0.0,0.0,0.0
1598621624432651888,4258,1598621624432496161,xsense,-0.658693343997,0.113162739714,-0.720907259028,-0.183330294268,-1.0,0.0,0.0,0.0,0.0,0.0,0.0,0.0,0.0,0.00152687894394,-1.0916354467e-05,3.74131894916e-05,-1.0,0.0,0.0,0.0,0.0,0.0,0.0,0.0,0.0,9.76253840538,0.743179808033,1.03795452405,-1.0,0.0,0.0,0.0,0.0,0.0,0.0,0.0,0.0
1598621624432987638,4259,1598621624432838316,xsense,-0.658695568285,0.113145843378,-0.720906283717,-0.183336566304,-1.0,0.0,0.0,0.0,0.0,0.0,0.0,0.0,0.0,0.00314054554752,0.00136727459776,-0.00304038165579,-1.0,0.0,0.0,0.0,0.0,0.0,0.0,0.0,0.0,9.76297311263,0.767665703158,1.03585448926,-1.0,0.0,0.0,0.0,0.0,0.0,0.0,0.0,0.0
1598621624434145710,4260,1598621624434022468,xsense,-0.658686959571,0.113148470228,-0.72090929177,-0.183354045542,-1.0,0.0,0.0,0.0,0.0,0.0,0.0,0.0,0.0,-0.00146224371789,0.00299258844072,-0.0016959175305,-1.0,0.0,0.0,0.0,0.0,0.0,0.0,0.0,0.0,9.78499281095,0.771894629618,1.08583692912,-1.0,0.0,0.0,0.0,0.0,0.0,0.0,0.0,0.0
1598621624434413141,4261,1598621624434284549,xsense,-0.658683460636,0.113130186059,-0.720910821837,-0.183371880737,-1.0,0.0,0.0,0.0,0.0,0.0,0.0,0.0,0.0,0.00166419440986,0.00283513806555,-0.00466899941886,-1.0,0.0,0.0,0.0,0.0,0.0,0.0,0.0,0.0,9.73939881668,0.817194641028,1.03084929025,-1.0,0.0,0.0,0.0,0.0,0.0,0.0,0.0,0.0
1598621624473778346,4262,1598621624473268240,xsense,-0.658693159179,0.113131890053,-0.720904712348,-0.183360009865,-1.0,0.0,0.0,0.0,0.0,0.0,0.0,0.0,0.0,0.00300328207291,-0.00147860628288,0.00166617763133,-1.0,0.0,0.0,0.0,0.0,0.0,0.0,0.0,0.0,9.76169727818,0.770557109003,1.06068260991,-1.0,0.0,0.0,0.0,0.0,0.0,0.0,0.0,0.0
1598621624474873069,4263,1598621624474429072,xsense,-0.658694572528,0.113142668774,-0.720901844442,-0.18335955744,-1.0,0.0,0.0,0.0,0.0,0.0,0.0,0.0,0.0,-3.63494490788e-05,6.78817367275e-05,0.00152398615899,-1.0,0.0,0.0,0.0,0.0,0.0,0.0,0.0,0.0,9.76262042581,0.819047158999,1.05630226138,-1.0,0.0,0.0,0.0,0.0,0.0,0.0,0.0,0.0
1598621624475267187,4264,1598621624474870252,xsense,-0.658685654743,0.113149538407,-0.720913838463,-0.183340196646,-1.0,0.0,0.0,0.0,0.0,0.0,0.0,0.0,0.0,0.00297299699512,0.00323146975488,0.00451232305841,-1.0,0.0,0.0,0.0,0.0,0.0,0.0,0.0,0.0,9.76127034332,0.745823119345,1.06290243183,-1.0,0.0,0.0,0.0,0.0,0.0,0.0,0.0,0.0
1598621624477864001,4265,1598621624477546963,xsense,-0.658676177849,0.113156976079,-0.720920906511,-0.183341861159,-1.0,0.0,0.0,0.0,0.0,0.0,0.0,0.0,0.0,-8.0172779891e-06,0.00311746002241,0.00138938802415,-1.0,0.0,0.0,0.0,0.0,0.0,0.0,0.0,0.0,9.76242130437,0.743380675968,1.03891163894,-1.0,0.0,0.0,0.0,0.0,0.0,0.0,0.0,0.0
1598621624522435483,4266,1598621624521956805,xsense,-0.658669262864,0.113153950836,-0.720927239217,-0.183343669984,-1.0,0.0,0.0,0.0,0.0,0.0,0.0,0.0,0.0,0.00155525886127,0.00303864437629,-9.70889776174e-05,-1.0,0.0,0.0,0.0,0.0,0.0,0.0,0.0,0.0,9.7612306873,0.745495991672,1.06349593414,-1.0,0.0,0.0,0.0,0.0,0.0,0.0,0.0,0.0
1598621624523367430,4267,1598621624523042972,xsense,-0.658711020882,0.113143378388,-0.72089234913,-0.183337360791,-1.0,0.0,0.0,0.0,0.0,0.0,0.0,0.0,0.0,0.00456834561618,-0.00931721976795,-0.00253151617689,-1.0,0.0,0.0,0.0,0.0,0.0,0.0,0.0,0.0,9.60546320488,0.689999698665,1.23245870356,-1.0,0.0,0.0,0.0,0.0,0.0,0.0,0.0,0.0
1598621624524012898,4268,1598621624523599490,xsense,-0.658901695299,0.11311831024,-0.720718100016,-0.183352731449,-1.0,0.0,0.0,0.0,0.0,0.0,0.0,0.0,0.0,0.00610489398765,-0.0481268168826,-0.0160501937162,-1.0,0.0,0.0,0.0,0.0,0.0,0.0,0.0,0.0,9.59772208302,0.580245389627,1.3618770917,-1.0,0.0,0.0,0.0,0.0,0.0,0.0,0.0,0.0
1598621624526657312,4269,1598621624526416353,xsense,-0.659142425016,0.113076350268,-0.720491953035,-0.183402148748,-1.0,0.0,0.0,0.0,0.0,0.0,0.0,0.0,0.0,0.00471864609612,-0.0607896965708,-0.0262158781308,-1.0,0.0,0.0,0.0,0.0,0.0,0.0,0.0,0.0,9.85423597824,0.656638695308,1.14116814337,-1.0,0.0,0.0,0.0,0.0,0.0,0.0,0.0,0.0
1598621624527263700,4270,1598621624527034415,xsense,-0.659483361875,0.112958523767,-0.720187866753,-0.183443462409,-1.0,0.0,0.0,0.0,0.0,0.0,0.0,0.0,0.0,0.018625012256,-0.0829107059369,-0.0401817198729,-1.0,0.0,0.0,0.0,0.0,0.0,0.0,0.0,0.0,9.58929592441,0.683663766057,1.07050538603,-1.0,0.0,0.0,0.0,0.0,0.0,0.0,0.0,0.0
1598621624563653779,4271,1598621624563391600,xsense,-0.659836428146,0.112811809154,-0.719868992373,-0.18351571493,-1.0,0.0,0.0,0.0,0.0,0.0,0.0,0.0,0.0,0.0188233694766,-0.0848432199759,-0.0492577718511,-1.0,0.0,0.0,0.0,0.0,0.0,0.0,0.0,0.0,9.75683820013,0.668127233108,1.14535131838,-1.0,0.0,0.0,0.0,0.0,0.0,0.0,0.0,0.0
1598621624564954866,4272,1598621624564545525,xsense,-0.660228673033,0.112621655062,-0.719516434855,-0.183604362935,-1.0,0.0,0.0,0.0,0.0,0.0,0.0,0.0,0.0,0.0235822317794,-0.0929730061854,-0.0594805948043,-1.0,0.0,0.0,0.0,0.0,0.0,0.0,0.0,0.0,9.71238126302,0.692050809187,1.05925330131,-1.0,0.0,0.0,0.0,0.0,0.0,0.0,0.0,0.0
1598621624565339049,4273,1598621624565033233,xsense,-0.660589831824,0.112411838123,-0.719185340509,-0.183731050011,-1.0,0.0,0.0,0.0,0.0,0.0,0.0,0.0,0.0,0.0207404426125,-0.0840783483915,-0.0660531259787,-1.0,0.0,0.0,0.0,0.0,0.0,0.0,0.0,0.0,9.72548983382,0.798059568121,0.796707984121,-1.0,0.0,0.0,0.0,0.0,0.0,0.0,0.0,0.0
1598621624565920935,4274,1598621624565504665,xsense,-0.660814291123,0.112237649665,-0.718976332161,-0.18384835174,-1.0,0.0,0.0,0.0,0.0,0.0,0.0,0.0,0.0,0.0145654165833,-0.0498131841121,-0.05244706054,-1.0,0.0,0.0,0.0,0.0,0.0,0.0,0.0,0.0,10.0455157479,0.919728009806,0.768920080635,-1.0,0.0,0.0,0.0,0.0,0.0,0.0,0.0,0.0
1598621624603652470,4275,1598621624603240823,xsense,-0.660947369579,0.112106837895,-0.718852939462,-0.183932278216,-1.0,0.0,0.0,0.0,0.0,0.0,0.0,0.0,0.0,0.0113127353565,-0.0276951505665,-0.0367051511549,-1.0,0.0,0.0,0.0,0.0,0.0,0.0,0.0,0.0,9.87508197284,1.02562214917,0.772973973263,-1.0,0.0,0.0,0.0,0.0,0.0,0.0,0.0,0.0
1598621624604205516,4276,1598621624603936073,xsense,-0.661013379955,0.112015601476,-0.718794602379,-0.183978629566,-1.0,0.0,0.0,0.0,0.0,0.0,0.0,0.0,0.0,0.00957227261905,-0.0117528131775,-0.0221815087958,-1.0,0.0,0.0,0.0,0.0,0.0,0.0,0.0,0.0,9.8944805535,1.06365284298,0.891264770031,-1.0,0.0,0.0,0.0,0.0,0.0,0.0,0.0,0.0
1598621624605699820,4277,1598621624605220238,xsense,-0.661024461797,0.112011924519,-0.718789336501,-0.183961624811,-1.0,0.0,0.0,0.0,0.0,0.0,0.0,0.0,0.0,0.0045376570234,-0.00147995442577,0.00169237921808,-1.0,0.0,0.0,0.0,0.0,0.0,0.0,0.0,0.0,9.81674341818,0.974843909888,0.968962787216,-1.0,0.0,0.0,0.0,0.0,0.0,0.0,0.0,0.0
1598621624605974232,4278,1598621624605703412,xsense,-0.660998268502,0.112068586394,-0.718817532062,-0.183911056171,-1.0,0.0,0.0,0.0,0.0,0.0,0.0,0.0,0.0,-0.00032399810081,0.00533115211664,0.0165588486905,-1.0,0.0,0.0,0.0,0.0,0.0,0.0,0.0,0.0,9.74258416617,0.901805480277,0.972495022343,-1.0,0.0,0.0,0.0,0.0,0.0,0.0,0.0,0.0
1598621624652753892,4279,1598621624652476209,xsense,-0.661024396819,0.112151832359,-0.718801587136,-0.183828701892,-1.0,0.0,0.0,0.0,0.0,0.0,0.0,0.0,0.0,0.000994342736588,-0.0097170626731,0.0218484324512,-1.0,0.0,0.0,0.0,0.0,0.0,0.0,0.0,0.0,9.68777848127,0.913666290384,1.11590419834,-1.0,0.0,0.0,0.0,0.0,0.0,0.0,0.0,0.0
1598621624654348300,4280,1598621624654102222,xsense,-0.661398350475,0.112415313799,-0.71848792442,-0.1835486902,-1.0,0.0,0.0,0.0,0.0,0.0,0.0,0.0,0.0,0.00439871731305,-0.0545427125143,0.0277603980228,-1.0,0.0,0.0,0.0,0.0,0.0,0.0,0.0,0.0,9.56223480285,0.745550716296,1.1687559402,-1.0,0.0,0.0,0.0,0.0,0.0,0.0,0.0,0.0
1598621624654702141,4281,1598621624654482043,xsense,-0.661764729965,0.112536384614,-0.718163278311,-0.183424398589,-1.0,0.0,0.0,0.0,0.0,0.0,0.0,0.0,0.0,0.00666738970973,-0.101779990248,0.0138965007625,-1.0,0.0,0.0,0.0,0.0,0.0,0.0,0.0,0.0,9.68928259827,0.70778541731,1.06875390913,-1.0,0.0,0.0,0.0,0.0,0.0,0.0,0.0,0.0
1598621624655077465,4282,1598621624654826892,xsense,-0.662175413533,0.112642787394,-0.717802851684,-0.183287725378,-1.0,0.0,0.0,0.0,0.0,0.0,0.0,0.0,0.0,0.0112310394797,-0.11261563318,0.0114238092761,-1.0,0.0,0.0,0.0,0.0,0.0,0.0,0.0,0.0,9.7400429219,0.75470986711,1.05591444771,-1.0,0.0,0.0,0.0,0.0,0.0,0.0,0.0,0.0
1598621624693286657,4283,1598621624692869276,xsense,-0.662604409142,0.112770796849,-0.717429531268,-0.183120211959,-1.0,0.0,0.0,0.0,0.0,0.0,0.0,0.0,0.0,0.0125949623224,-0.118445268615,0.0178259796417,-1.0,0.0,0.0,0.0,0.0,0.0,0.0,0.0,0.0,9.74285480317,0.976638744601,1.07339550355,-1.0,0.0,0.0,0.0,0.0,0.0,0.0,0.0,0.0
1598621624693869516,4284,1598621624693532888,xsense,-0.663042088678,0.112961680593,-0.717051160043,-0.182900194752,-1.0,0.0,0.0,0.0,0.0,0.0,0.0,0.0,0.0,0.0107346923893,-0.123841195131,0.0333124018063,-1.0,0.0,0.0,0.0,0.0,0.0,0.0,0.0,0.0,9.74606374157,1.02068317928,1.0327821607,-1.0,0.0,0.0,0.0,0.0,0.0,0.0,0.0,0.0
1598621624696234450,4285,1598621624695821582,xsense,-0.66344911468,0.113281721881,-0.716695424333,-0.182620350613,-1.0,0.0,0.0,0.0,0.0,0.0,0.0,0.0,0.0,-0.000455411141743,-0.122527449124,0.0605437839009,-1.0,0.0,0.0,0.0,0.0,0.0,0.0,0.0,0.0,9.82654946153,1.0771099173,0.895364015678,-1.0,0.0,0.0,0.0,0.0,0.0,0.0,0.0,0.0
1598621624696767305,4286,1598621624696341129,xsense,-0.663795791536,0.113637598715,-0.716400426188,-0.182296661116,-1.0,0.0,0.0,0.0,0.0,0.0,0.0,0.0,0.0,-0.000611092113511,-0.108112310386,0.0751655599229,-1.0,0.0,0.0,0.0,0.0,0.0,0.0,0.0,0.0,9.92858457325,0.909993873903,0.754986509292,-1.0,0.0,0.0,0.0,0.0,0.0,0.0,0.0,0.0
1598621624733583926,4287,1598621624733092055,xsense,-0.664006074518,0.113983476352,-0.716239819315,-0.181945654935,-1.0,0.0,0.0,0.0,0.0,0.0,0.0,0.0,0.0,0.00254410573601,-0.0709892838893,0.0857601735582,-1.0,0.0,0.0,0.0,0.0,0.0,0.0,0.0,0.0,9.95394413336,0.775684493367,0.709359729606,-1.0,0.0,0.0,0.0,0.0,0.0,0.0,0.0,0.0
1598621624734238067,4288,1598621624733846682,xsense,-0.664144453976,0.114290174843,-0.71614922156,-0.181604495115,-1.0,0.0,0.0,0.0,0.0,0.0,0.0,0.0,0.0,0.00581387867703,-0.0497368946574,0.0833249455924,-1.0,0.0,0.0,0.0,0.0,0.0,0.0,0.0,0.0,9.88001817249,0.620304822095,0.689701641832,-1.0,0.0,0.0,0.0,0.0,0.0,0.0,0.0,0.0
1598621624736826297,4289,1598621624736491622,xsense,-0.664207080633,0.114519928315,-0.716117697546,-0.181354854683,-1.0,0.0,0.0,0.0,0.0,0.0,0.0,0.0,0.0,0.00328635273016,-0.0261542540963,0.0638793976202,-1.0,0.0,0.0,0.0,0.0,0.0,0.0,0.0,0.0,9.82703516018,0.576298267359,0.810159576465,-1.0,0.0,0.0,0.0,0.0,0.0,0.0,0.0,0.0
1598621624737344402,4290,1598621624737091001,xsense,-0.664310671298,0.114696633919,-0.716044341537,-0.181153291776,-1.0,0.0,0.0,0.0,0.0,0.0,0.0,0.0,0.0,0.00501588437474,-0.0345522333432,0.0474849725382,-1.0,0.0,0.0,0.0,0.0,0.0,0.0,0.0,0.0,9.70040595645,0.561840256178,0.951011201468,-1.0,0.0,0.0,0.0,0.0,0.0,0.0,0.0,0.0
1598621624783039918,4291,1598621624782817080,xsense,-0.664464899281,0.114828725111,-0.715920744864,-0.18099239925,-1.0,0.0,0.0,0.0,0.0,0.0,0.0,0.0,0.0,0.00668614274938,-0.0459305551766,0.0327526506558,-1.0,0.0,0.0,0.0,0.0,0.0,0.0,0.0,0.0,9.69901820146,0.6663516573,1.05974556228,-1.0,0.0,0.0,0.0,0.0,0.0,0.0,0.0,0.0
1598621624783315448,4292,1598621624783185437,xsense,-0.664681940991,0.114963827034,-0.715737168027,-0.180835677063,-1.0,0.0,0.0,0.0,0.0,0.0,0.0,0.0,0.0,0.0065946210091,-0.06290775022,0.0289404328034,-1.0,0.0,0.0,0.0,0.0,0.0,0.0,0.0,0.0,9.70422513241,0.804836752557,0.992565344217,-1.0,0.0,0.0,0.0,0.0,0.0,0.0,0.0,0.0
1598621624784391800,4293,1598621624784221608,xsense,-0.664994245584,0.115165256281,-0.715476757154,-0.180589664871,-1.0,0.0,0.0,0.0,0.0,0.0,0.0,0.0,0.0,0.0106523506687,-0.0912141273974,0.0455714972835,-1.0,0.0,0.0,0.0,0.0,0.0,0.0,0.0,0.0,9.53247349239,0.93914704509,1.11424887354,-1.0,0.0,0.0,0.0,0.0,0.0,0.0,0.0,0.0
1598621624784638448,4294,1598621624784463250,xsense,-0.665462014562,0.115522637486,-0.715087315575,-0.180180349946,-1.0,0.0,0.0,0.0,0.0,0.0,0.0,0.0,0.0,0.0126948421967,-0.140011523695,0.081438318586,-1.0,0.0,0.0,0.0,0.0,0.0,0.0,0.0,0.0,9.63252101108,1.03317278053,1.1458978182,-1.0,0.0,0.0,0.0,0.0,0.0,0.0,0.0,0.0
1598621624784834481,4295,1598621624784696158,xsense,-0.665963744901,0.115956208224,-0.714668855488,-0.179707749546,-1.0,0.0,0.0,0.0,0.0,0.0,0.0,0.0,0.0,0.0107899916314,-0.152946894478,0.0988070749101,-1.0,0.0,0.0,0.0,0.0,0.0,0.0,0.0,0.0,9.83313589842,0.881565024982,0.954133638094,-1.0,0.0,0.0,0.0,0.0,0.0,0.0,0.0,0.0
1598621624822651605,4296,1598621624822483677,xsense,-0.666368223593,0.116382335602,-0.714336719285,-0.179252877315,-1.0,0.0,0.0,0.0,0.0,0.0,0.0,0.0,0.0,0.00798382604762,-0.126861562062,0.100631768467,-1.0,0.0,0.0,0.0,0.0,0.0,0.0,0.0,0.0,9.96470709976,0.765216026007,0.610166506359,-1.0,0.0,0.0,0.0,0.0,0.0,0.0,0.0,0.0
1598621624822974568,4297,1598621624822809960,xsense,-0.666653738513,0.116794746269,-0.714108764119,-0.178830794828,-1.0,0.0,0.0,0.0,0.0,0.0,0.0,0.0,0.0,0.00375120003824,-0.094732760072,0.100633148514,-1.0,0.0,0.0,0.0,0.0,0.0,0.0,0.0,0.0,10.0134452107,0.575116865955,0.518760074272,-1.0,0.0,0.0,0.0,0.0,0.0,0.0,0.0,0.0
1598621624823435335,4298,1598621624823282541,xsense,-0.666759538925,0.11713146672,-0.714035441557,-0.178508613115,-1.0,0.0,0.0,0.0,0.0,0.0,0.0,0.0,0.0,-0.00159174476702,-0.0434007974067,0.0859918284211,-1.0,0.0,0.0,0.0,0.0,0.0,0.0,0.0,0.0,10.0399133328,0.587316008811,0.485955007563,-1.0,0.0,0.0,0.0,0.0,0.0,0.0,0.0,0.0
1598621624823605162,4299,1598621624823498764,xsense,-0.666723956305,0.117403609591,-0.714086589626,-0.178257962125,-1.0,0.0,0.0,0.0,0.0,0.0,0.0,0.0,0.0,-0.00403090479585,-0.00263082438204,0.0749273451066,-1.0,0.0,0.0,0.0,0.0,0.0,0.0,0.0,0.0,9.88998436259,0.598185135359,0.649947233063,-1.0,0.0,0.0,0.0,0.0,0.0,0.0,0.0,0.0
1598621624863951191,4300,1598621624863516361,xsense,-0.666640435145,0.117606916381,-0.714174756075,-0.178083017815,-1.0,0.0,0.0,0.0,0.0,0.0,0.0,0.0,0.0,-0.0051440732246,0.0133837552913,0.057375322832,-1.0,0.0,0.0,0.0,0.0,0.0,0.0,0.0,0.0,9.8386078874,0.603931620293,0.770743884091,-1.0,0.0,0.0,0.0,0.0,0.0,0.0,0.0,0.0
1598621624864458777,4301,1598621624864079650,xsense,-0.666531271359,0.117792899355,-0.71427510344,-0.177966215244,-1.0,0.0,0.0,0.0,0.0,0.0,0.0,0.0,0.0,-0.0110436204386,0.0206569091381,0.0478017007831,-1.0,0.0,0.0,0.0,0.0,0.0,0.0,0.0,0.0,9.81185797011,0.502054329087,0.780704937782,-1.0,0.0,0.0,0.0,0.0,0.0,0.0,0.0,0.0
1598621624866900982,4302,1598621624866443150,xsense,-0.666405355749,0.117830035031,-0.714394267126,-0.177934863845,-1.0,0.0,0.0,0.0,0.0,0.0,0.0,0.0,0.0,-0.00132890276864,0.0328675483823,0.0168128699921,-1.0,0.0,0.0,0.0,0.0,0.0,0.0,0.0,0.0,9.81290974156,0.441287217216,0.690583244685,-1.0,0.0,0.0,0.0,0.0,0.0,0.0,0.0,0.0
1598621624867170644,4303,1598621624866897841,xsense,-0.666214670656,0.117794233726,-0.714558275256,-0.178014051035,-1.0,0.0,0.0,0.0,0.0,0.0,0.0,0.0,0.0,-0.0068920609742,0.0533023725437,-0.0055810440572,-1.0,0.0,0.0,0.0,0.0,0.0,0.0,0.0,0.0,9.88647494287,0.463251832055,0.694599419141,-1.0,0.0,0.0,0.0,0.0,0.0,0.0,0.0,0.0
1598621624913296865,4304,1598621624912782784,xsense,-0.666005326781,0.117664890619,-0.714737039369,-0.178165212006,-1.0,0.0,0.0,0.0,0.0,0.0,0.0,0.0,0.0,-0.00342705257684,0.0629578726135,-0.0273643830638,-1.0,0.0,0.0,0.0,0.0,0.0,0.0,0.0,0.0,9.78529757129,0.478338791504,0.819181894894,-1.0,0.0,0.0,0.0,0.0,0.0,0.0,0.0,0.0
1598621624913954267,4305,1598621624913555579,xsense,-0.665818088342,0.117488281179,-0.714887438608,-0.178378045576,-1.0,0.0,0.0,0.0,0.0,0.0,0.0,0.0,0.0,-0.00477667104786,0.059159501239,-0.0440138305669,-1.0,0.0,0.0,0.0,0.0,0.0,0.0,0.0,0.0,9.71205921755,0.613970721555,0.909240434935,-1.0,0.0,0.0,0.0,0.0,0.0,0.0,0.0,0.0
1598621624916178881,4306,1598621624915758471,xsense,-0.665694043658,0.117291256811,-0.714988640623,-0.178564960428,-1.0,0.0,0.0,0.0,0.0,0.0,0.0,0.0,0.0,0.00270362697139,0.0436880307705,-0.046259959998,-1.0,0.0,0.0,0.0,0.0,0.0,0.0,0.0,0.0,9.71378673156,0.742102721742,0.92747238175,-1.0,0.0,0.0,0.0,0.0,0.0,0.0,0.0,0.0
1598621624916667737,4307,1598621624916354293,xsense,-0.665597407071,0.117124795034,-0.715063533845,-0.17873448647,-1.0,0.0,0.0,0.0,0.0,0.0,0.0,0.0,0.0,0.000999300611386,0.0347691409114,-0.0412934572484,-1.0,0.0,0.0,0.0,0.0,0.0,0.0,0.0,0.0,9.76316678326,0.767341885988,0.906179295559,-1.0,0.0,0.0,0.0,0.0,0.0,0.0,0.0,0.0
1598621624917112761,4308,1598621624916771578,xsense,-0.665489014643,0.116959814018,-0.715152440046,-0.178890359695,-1.0,0.0,0.0,0.0,0.0,0.0,0.0,0.0,0.0,0.00252374515396,0.0379405072707,-0.0383608998579,-1.0,0.0,0.0,0.0,0.0,0.0,0.0,0.0,0.0,9.81279366286,0.712624299104,0.818379419099,-1.0,0.0,0.0,0.0,0.0,0.0,0.0,0.0,0.0
1598621624953244534,4309,1598621624952953670,xsense,-0.665374936361,0.116816291405,-0.715237868432,-0.179066858144,-1.0,0.0,0.0,0.0,0.0,0.0,0.0,0.0,0.0,-0.00358440717367,0.0380080510591,-0.0384517617593,-1.0,0.0,0.0,0.0,0.0,0.0,0.0,0.0,0.0,9.78781050768,0.716921886282,0.821377444362,-1.0,0.0,0.0,0.0,0.0,0.0,0.0,0.0,0.0
1598621624954550761,4310,1598621624954181072,xsense,-0.665285460394,0.116645535282,-0.715313332895,-0.179209126635,-1.0,0.0,0.0,0.0,0.0,0.0,0.0,0.0,0.0,0.00552372647861,0.0333359427423,-0.0381055146883,-1.0,0.0,0.0,0.0,0.0,0.0,0.0,0.0,0.0,9.76087541837,0.701355686581,0.874939848214,-1.0,0.0,0.0,0.0,0.0,0.0,0.0,0.0,0.0
1598621624955195672,4311,1598621624954838912,xsense,-0.665196467563,0.116519905201,-0.7153816323,-0.179348519372,-1.0,0.0,0.0,0.0,0.0,0.0,0.0,0.0,0.0,-0.000708078724008,0.0306316359658,-0.0319630953192,-1.0,0.0,0.0,0.0,0.0,0.0,0.0,0.0,0.0,9.73304068516,0.740773805395,0.996590712637,-1.0,0.0,0.0,0.0,0.0,0.0,0.0,0.0,0.0
1598621624955678859,4312,1598621624955310939,xsense,-0.665174881463,0.116430292678,-0.715396759443,-0.17942642112,-1.0,0.0,0.0,0.0,0.0,0.0,0.0,0.0,0.0,0.00350686801335,0.0111857421243,-0.0218463049424,-1.0,0.0,0.0,0.0,0.0,0.0,0.0,0.0,0.0,9.68428475629,0.795268452829,1.0169796304,-1.0,0.0,0.0,0.0,0.0,0.0,0.0,0.0,0.0
1598621624982770630,4313,1598621624982343865,xsense,-0.665215986336,0.116370505659,-0.715357285471,-0.179470195463,-1.0,0.0,0.0,0.0,0.0,0.0,0.0,0.0,0.0,0.00475285395253,-0.00691303039265,-0.0164182125032,-1.0,0.0,0.0,0.0,0.0,0.0,0.0,0.0,0.0,9.73374451143,0.767384105614,0.972274879,-1.0,0.0,0.0,0.0,0.0,0.0,0.0,0.0,0.0
1598621624984950577,4314,1598621624984608892,xsense,-0.665280337051,0.116334576346,-0.715295023917,-0.179503114845,-1.0,0.0,0.0,0.0,0.0,0.0,0.0,0.0,0.0,0.00309268007071,-0.0143794274155,-0.0130465692232,-1.0,0.0,0.0,0.0,0.0,0.0,0.0,0.0,0.0,9.78407108613,0.736849639623,0.902024034598,-1.0,0.0,0.0,0.0,0.0,0.0,0.0,0.0,0.0
1598621624985699701,4315,1598621624985207072,xsense,-0.665338125623,0.116302066215,-0.715239370679,-0.179531753785,-1.0,0.0,0.0,0.0,0.0,0.0,0.0,0.0,0.0,0.00308850343036,-0.0127851579589,-0.0115917189616,-1.0,0.0,0.0,0.0,0.0,0.0,0.0,0.0,0.0,9.81129945115,0.728650691818,0.804214269118,-1.0,0.0,0.0,0.0,0.0,0.0,0.0,0.0,0.0
1598621625023496713,4316,1598621625023059957,xsense,-0.66536893747,0.116261247616,-0.715208799481,-0.179565788773,-1.0,0.0,0.0,0.0,0.0,0.0,0.0,0.0,0.0,0.00317649644813,-0.00516330888689,-0.0119387343256,-1.0,0.0,0.0,0.0,0.0,0.0,0.0,0.0,0.0,9.81016456157,0.681217038758,0.807748323491,-1.0,0.0,0.0,0.0,0.0,0.0,0.0,0.0,0.0
1598621625024215923,4317,1598621625023680722,xsense,-0.665403212741,0.116205165258,-0.715173464169,-0.179615812751,-1.0,0.0,0.0,0.0,0.0,0.0,0.0,0.0,0.0,0.00324201371964,-0.00537304584232,-0.0165113483459,-1.0,0.0,0.0,0.0,0.0,0.0,0.0,0.0,0.0,9.78181052452,0.643456454379,0.908109975183,-1.0,0.0,0.0,0.0,0.0,0.0,0.0,0.0,0.0
1598621625024952127,4318,1598621625024771229,xsense,-0.66543953347,0.11613919749,-0.715132492125,-0.179687041292,-1.0,0.0,0.0,0.0,0.0,0.0,0.0,0.0,0.0,0.00178025781095,-0.00556753240726,-0.0211072336113,-1.0,0.0,0.0,0.0,0.0,0.0,0.0,0.0,0.0,9.73529626697,0.716976536769,0.875109656837,-1.0,0.0,0.0,0.0,0.0,0.0,0.0,0.0,0.0
1598621625025443760,4319,1598621625025229691,xsense,-0.66547018864,0.116048985337,-0.715100094146,-0.17976071981,-1.0,0.0,0.0,0.0,0.0,0.0,0.0,0.0,0.0,0.00491275390935,-0.00268893770228,-0.0242480713668,-1.0,0.0,0.0,0.0,0.0,0.0,0.0,0.0,0.0,9.80905916011,0.71553455638,0.852609892946,-1.0,0.0,0.0,0.0,0.0,0.0,0.0,0.0,0.0
1598621625063439328,4320,1598621625063142183,xsense,-0.665495440279,0.115957114325,-0.715072695628,-0.179835498647,-1.0,0.0,0.0,0.0,0.0,0.0,0.0,0.0,0.0,0.00492990845569,-0.00116452577487,-0.0243175474832,-1.0,0.0,0.0,0.0,0.0,0.0,0.0,0.0,0.0,9.81083354768,0.737790755921,0.801560657464,-1.0,0.0,0.0,0.0,0.0,0.0,0.0,0.0,0.0
1598621625064850694,4321,1598621625064415354,xsense,-0.665502455854,0.115892997233,-0.715059983955,-0.179901400192,-1.0,0.0,0.0,0.0,0.0,0.0,0.0,0.0,0.0,0.0018221416656,0.00219382856195,-0.0184062504553,-1.0,0.0,0.0,0.0,0.0,0.0,0.0,0.0,0.0,9.78648773705,0.817779254782,0.842777571342,-1.0,0.0,0.0,0.0,0.0,0.0,0.0,0.0,0.0
1598621625065212540,4322,1598621625064896422,xsense,-0.665493434316,0.115873286819,-0.715064155047,-0.179930887983,-1.0,0.0,0.0,0.0,0.0,0.0,0.0,0.0,0.0,0.000137264110384,0.00429301666349,-0.00630546216064,-1.0,0.0,0.0,0.0,0.0,0.0,0.0,0.0,0.0,9.80919840932,0.849550776515,0.914510587084,-1.0,0.0,0.0,0.0,0.0,0.0,0.0,0.0,0.0
1598621625065713860,4323,1598621625065357575,xsense,-0.665497919032,0.115895831963,-0.715059391759,-0.179918709853,-1.0,0.0,0.0,0.0,0.0,0.0,0.0,0.0,0.0,-8.21455111804e-05,-0.00131430212675,0.00464214609747,-1.0,0.0,0.0,0.0,0.0,0.0,0.0,0.0,0.0,9.76001379018,0.799714061333,0.893314827234,-1.0,0.0,0.0,0.0,0.0,0.0,0.0,0.0,0.0
1598621625112976609,4324,1598621625112448669,xsense,-0.665504076203,0.115912725431,-0.715057931355,-0.179890854263,-1.0,0.0,0.0,0.0,0.0,0.0,0.0,0.0,0.0,0.00295050333722,-0.00127350533715,0.00621285265341,-1.0,0.0,0.0,0.0,0.0,0.0,0.0,0.0,0.0,9.75863075088,0.69973183125,0.877770161803,-1.0,0.0,0.0,0.0,0.0,0.0,0.0,0.0,0.0
1598621625113584761,4325,1598621625113108839,xsense,-0.665516000058,0.115927043841,-0.715042516386,-0.179898788026,-1.0,0.0,0.0,0.0,0.0,0.0,0.0,0.0,0.0,-0.00156067985914,-0.00303407199498,0.00011591970106,-1.0,0.0,0.0,0.0,0.0,0.0,0.0,0.0,0.0,9.80902367938,0.667469491599,0.808360328403,-1.0,0.0,0.0,0.0,0.0,0.0,0.0,0.0,0.0
1598621625115860922,4326,1598621625115545691,xsense,-0.66553279651,0.115897873321,-0.715029181105,-0.179908448654,-1.0,0.0,0.0,0.0,0.0,0.0,0.0,0.0,0.0,0.00465211566457,-0.00184848831023,-0.00595754667184,-1.0,0.0,0.0,0.0,0.0,0.0,0.0,0.0,0.0,9.80779405509,0.645700740816,0.834635907148,-1.0,0.0,0.0,0.0,0.0,0.0,0.0,0.0,0.0
1598621625116275709,4327,1598621625116006783,xsense,-0.665508745969,0.115868084121,-0.715046822202,-0.179946486988,-1.0,0.0,0.0,0.0,0.0,0.0,0.0,0.0,0.0,0.000208949821048,0.0087958562535,-0.00803860750301,-1.0,0.0,0.0,0.0,0.0,0.0,0.0,0.0,0.0,9.78508291333,0.693247382723,0.805467474887,-1.0,0.0,0.0,0.0,0.0,0.0,0.0,0.0,0.0
1598621625116790250,4328,1598621625116503050,xsense,-0.665484802412,0.115811483052,-0.715059065691,-0.180022806125,-1.0,0.0,0.0,0.0,0.0,0.0,0.0,0.0,0.0,-0.00117051797851,0.00991438772413,-0.0172766318425,-1.0,0.0,0.0,0.0,0.0,0.0,0.0,0.0,0.0,9.80967687446,0.74487174328,0.82698330953,-1.0,0.0,0.0,0.0,0.0,0.0,0.0,0.0,0.0
1598621625152663445,4329,1598621625152377144,xsense,-0.665461641801,0.115776887141,-0.715072656163,-0.180076683951,-1.0,0.0,0.0,0.0,0.0,0.0,0.0,0.0,0.0,-0.00127468464166,0.00867026212023,-0.0111102578541,-1.0,0.0,0.0,0.0,0.0,0.0,0.0,0.0,0.0,9.78334158626,0.700338744451,0.855906038544,-1.0,0.0,0.0,0.0,0.0,0.0,0.0,0.0,0.0
1598621625153992587,4330,1598621625153572706,xsense,-0.66543590417,0.115729892989,-0.715092975157,-0.180121309653,-1.0,0.0,0.0,0.0,0.0,0.0,0.0,0.0,0.0,0.00179624808935,0.0101659747431,-0.0111329978744,-1.0,0.0,0.0,0.0,0.0,0.0,0.0,0.0,0.0,9.78300174456,0.72797479417,0.878902357293,-1.0,0.0,0.0,0.0,0.0,0.0,0.0,0.0,0.0
1598621625154290439,4331,1598621625154010319,xsense,-0.665425461905,0.115692686586,-0.715102282057,-0.180146837654,-1.0,0.0,0.0,0.0,0.0,0.0,0.0,0.0,0.0,0.00323030838828,0.00571872167292,-0.0078523296276,-1.0,0.0,0.0,0.0,0.0,0.0,0.0,0.0,0.0,9.75827898577,0.755926411607,0.900985474687,-1.0,0.0,0.0,0.0,0.0,0.0,0.0,0.0,0.0
1598621625156942494,4332,1598621625156684908,xsense,-0.665421828051,0.115674637044,-0.715101426163,-0.180175246351,-1.0,0.0,0.0,0.0,0.0,0.0,0.0,0.0,0.0,0.000121145590064,0.00276844011368,-0.00623597804024,-1.0,0.0,0.0,0.0,0.0,0.0,0.0,0.0,0.0,9.75870724895,0.780935786572,0.899161724434,-1.0,0.0,0.0,0.0,0.0,0.0,0.0,0.0,0.0
1598621625192917247,4333,1598621625192697012,xsense,-0.665425789489,0.115674890195,-0.715097767655,-0.180174973723,-1.0,0.0,0.0,0.0,0.0,0.0,0.0,0.0,0.0,0.00152723372388,-1.41442142729e-05,2.35603137689e-05,-1.0,0.0,0.0,0.0,0.0,0.0,0.0,0.0,0.0,9.78377736557,0.778554317377,0.875741930306,-1.0,0.0,0.0,0.0,0.0,0.0,0.0,0.0,0.0
1598621625193981731,4334,1598621625193708120,xsense,-0.665430011373,0.115674863819,-0.715096556586,-0.180164204554,-1.0,0.0,0.0,0.0,0.0,0.0,0.0,0.0,0.0,0.003032301753,4.18009364611e-05,0.00157130408305,-1.0,0.0,0.0,0.0,0.0,0.0,0.0,0.0,0.0,9.80889019902,0.775803519903,0.852177852304,-1.0,0.0,0.0,0.0,0.0,0.0,0.0,0.0,0.0
1598621625194269195,4335,1598621625194055330,xsense,-0.665418312406,0.115692423966,-0.715106855166,-0.180155261503,-1.0,0.0,0.0,0.0,0.0,0.0,0.0,0.0,0.0,-3.39924015839e-05,0.00325908463652,0.0044332349971,-1.0,0.0,0.0,0.0,0.0,0.0,0.0,0.0,0.0,9.80875701872,0.698119687541,0.810405617042,-1.0,0.0,0.0,0.0,0.0,0.0,0.0,0.0,0.0
1598621625194804078,4336,1598621625194501341,xsense,-0.665393883277,0.115689733628,-0.715127427291,-0.180165558214,-1.0,0.0,0.0,0.0,0.0,0.0,0.0,0.0,0.0,8.14479572623e-05,0.0076218693656,-0.000348274885566,-1.0,0.0,0.0,0.0,0.0,0.0,0.0,0.0,0.0,9.75798997721,0.679001502691,0.860257072842,-1.0,0.0,0.0,0.0,0.0,0.0,0.0,0.0,0.0
1598621625234228407,4337,1598621625233732785,xsense,-0.665393078083,0.115660941509,-0.715128286972,-0.180183604754,-1.0,0.0,0.0,0.0,0.0,0.0,0.0,0.0,0.0,0.00317604176507,0.0027399233192,-0.00618874439933,-1.0,0.0,0.0,0.0,0.0,0.0,0.0,0.0,0.0,9.78141844047,0.707671113265,0.907882085295,-1.0,0.0,0.0,0.0,0.0,0.0,0.0,0.0,0.0
1598621625236552975,4338,1598621625236157547,xsense,-0.665401648224,0.115640848319,-0.715118250432,-0.180204685401,-1.0,0.0,0.0,0.0,0.0,0.0,0.0,0.0,0.0,0.00161632659575,-0.00029468258265,-0.00607305075523,-1.0,0.0,0.0,0.0,0.0,0.0,0.0,0.0,0.0,9.75748425342,0.733050428069,0.905001159803,-1.0,0.0,0.0,0.0,0.0,0.0,0.0,0.0,0.0
1598621625237109418,4339,1598621625236774166,xsense,-0.665423312209,0.115613903978,-0.715094993089,-0.180234268757,-1.0,0.0,0.0,0.0,0.0,0.0,0.0,0.0,0.0,0.00162849109705,-0.00348372007941,-0.00898202252117,-1.0,0.0,0.0,0.0,0.0,0.0,0.0,0.0,0.0,9.78346247459,0.70231711204,0.834887015042,-1.0,0.0,0.0,0.0,0.0,0.0,0.0,0.0,0.0
1598621625237442806,4340,1598621625237183573,xsense,-0.665448066872,0.115598800218,-0.715069899668,-0.180252118637,-1.0,0.0,0.0,0.0,0.0,0.0,0.0,0.0,0.0,0.00156787294392,-0.0048677726799,-0.00586396002612,-1.0,0.0,0.0,0.0,0.0,0.0,0.0,0.0,0.0,9.7844746145,0.751670150065,0.830011219032,-1.0,0.0,0.0,0.0,0.0,0.0,0.0,0.0,0.0
1598621625283238699,4341,1598621625282700591,xsense,-0.665470252246,0.115571290718,-0.715051541663,-0.180260680415,-1.0,0.0,0.0,0.0,0.0,0.0,0.0,0.0,0.0,0.0046384455941,-0.00337135023768,-0.00588647271794,-1.0,0.0,0.0,0.0,0.0,0.0,0.0,0.0,0.0,9.80815310237,0.754067950423,0.854639121032,-1.0,0.0,0.0,0.0,0.0,0.0,0.0,0.0,0.0
1598621625285540823,4342,1598621625285140311,xsense,-0.66544901698,0.115553618302,-0.715064879016,-0.180297492762,-1.0,0.0,0.0,0.0,0.0,0.0,0.0,0.0,0.0,-0.00135826489046,0.00735498493107,-0.00646903516256,-1.0,0.0,0.0,0.0,0.0,0.0,0.0,0.0,0.0,9.78460033783,0.726338567865,0.807696161267,-1.0,0.0,0.0,0.0,0.0,0.0,0.0,0.0,0.0
1598621625285954640,4343,1598621625285590211,xsense,-0.665428307004,0.115535378373,-0.715083120591,-0.180313269693,-1.0,0.0,0.0,0.0,0.0,0.0,0.0,0.0,0.0,0.00165171503902,0.00746760681182,-0.00337341977894,-1.0,0.0,0.0,0.0,0.0,0.0,0.0,0.0,0.0,9.78379229857,0.729064835225,0.832720572292,-1.0,0.0,0.0,0.0,0.0,0.0,0.0,0.0,0.0
1598621625286390211,4344,1598621625286055599,xsense,-0.665392555962,0.115507063926,-0.715114818967,-0.180337628761,-1.0,0.0,0.0,0.0,0.0,0.0,0.0,0.0,0.0,0.00172196889309,0.0119705360342,-0.00510684317086,-1.0,0.0,0.0,0.0,0.0,0.0,0.0,0.0,0.0,9.75713758291,0.736667792777,0.90580121461,-1.0,0.0,0.0,0.0,0.0,0.0,0.0,0.0,0.0
1598621625286872650,4345,1598621625286458318,xsense,-0.665385728061,0.115503989928,-0.715121195386,-0.180339505135,-1.0,0.0,0.0,0.0,0.0,0.0,0.0,0.0,0.0,0.00155911794578,0.00303493396564,-0.000115746499048,-1.0,0.0,0.0,0.0,0.0,0.0,0.0,0.0,0.0,9.73295426412,0.788236710597,0.925601083482,-1.0,0.0,0.0,0.0,0.0,0.0,0.0,0.0,0.0
1598621625323439741,4346,1598621625323072948,xsense,-0.665420020421,0.115524122842,-0.715093069574,-0.180311606148,-1.0,0.0,0.0,0.0,0.0,0.0,0.0,0.0,0.0,0.00289154335289,-0.00896319989511,0.00503876767481,-1.0,0.0,0.0,0.0,0.0,0.0,0.0,0.0,0.0,9.73177517578,0.765955995493,0.951825590605,-1.0,0.0,0.0,0.0,0.0,0.0,0.0,0.0,0.0
1598621625324640220,4347,1598621625324298071,xsense,-0.665474737201,0.11555599645,-0.715046466686,-0.180274058896,-1.0,0.0,0.0,0.0,0.0,0.0,0.0,0.0,0.0,0.00280533597715,-0.0149904264854,0.00684214037473,-1.0,0.0,0.0,0.0,0.0,0.0,0.0,0.0,0.0,9.78113472989,0.711413505514,0.908013984104,-1.0,0.0,0.0,0.0,0.0,0.0,0.0,0.0,0.0
1598621625325061088,4348,1598621625324782945,xsense,-0.665546261769,0.115565476993,-0.714984295141,-0.180250524756,-1.0,0.0,0.0,0.0,0.0,0.0,0.0,0.0,0.0,0.00438961095251,-0.0183341355567,0.000908736734021,-1.0,0.0,0.0,0.0,0.0,0.0,0.0,0.0,0.0,9.70729187177,0.637234872323,0.886496765583,-1.0,0.0,0.0,0.0,0.0,0.0,0.0,0.0,0.0
1598621625325564574,4349,1598621625325272441,xsense,-0.665667833403,0.115534875921,-0.714878394973,-0.180241250604,-1.0,0.0,0.0,0.0,0.0,0.0,0.0,0.0,0.0,0.00901420449383,-0.0295385174599,-0.00920097648468,-1.0,0.0,0.0,0.0,0.0,0.0,0.0,0.0,0.0,9.73046987564,0.641749455928,0.933477724992,-1.0,0.0,0.0,0.0,0.0,0.0,0.0,0.0,0.0
1598621625364517822,4350,1598621625364264776,xsense,-0.665848714389,0.11552256869,-0.714717238473,-0.180220128451,-1.0,0.0,0.0,0.0,0.0,0.0,0.0,0.0,0.0,0.00883950179853,-0.0463063545399,-0.00843164858696,-1.0,0.0,0.0,0.0,0.0,0.0,0.0,0.0,0.0,9.67969977597,0.676880030177,1.02321952789,-1.0,0.0,0.0,0.0,0.0,0.0,0.0,0.0,0.0
1598621625365682200,4351,1598621625365270769,xsense,-0.666128880143,0.115507146847,-0.714468459367,-0.180181116203,-1.0,0.0,0.0,0.0,0.0,0.0,0.0,0.0,0.0,0.0132178784874,-0.0724726907062,-0.0117451565223,-1.0,0.0,0.0,0.0,0.0,0.0,0.0,0.0,0.0,9.68242755143,0.748634123753,0.98637776316,-1.0,0.0,0.0,0.0,0.0,0.0,0.0,0.0,0.0
1598621625366059561,4352,1598621625365758221,xsense,-0.666404205768,0.115485519916,-0.714218083633,-0.180169526381,-1.0,0.0,0.0,0.0,0.0,0.0,0.0,0.0,0.0,0.0102432694212,-0.0711322050991,-0.0164322392116,-1.0,0.0,0.0,0.0,0.0,0.0,0.0,0.0,0.0,9.78410543893,0.710533612546,0.838599464866,-1.0,0.0,0.0,0.0,0.0,0.0,0.0,0.0,0.0
1598621625366525611,4353,1598621625366236046,xsense,-0.666654418116,0.115472486574,-0.713992532661,-0.180146204388,-1.0,0.0,0.0,0.0,0.0,0.0,0.0,0.0,0.0,0.0102450233004,-0.0648227090405,-0.0121403003649,-1.0,0.0,0.0,0.0,0.0,0.0,0.0,0.0,0.0,9.86183922513,0.774606945888,0.73000404033,-1.0,0.0,0.0,0.0,0.0,0.0,0.0,0.0,0.0
1598621625404535010,4354,1598621625404045652,xsense,-0.666840468359,0.115461792794,-0.713826121972,-0.180123934429,-1.0,0.0,0.0,0.0,0.0,0.0,0.0,0.0,0.0,0.00882760283848,-0.047829425227,-0.00836215766794,-1.0,0.0,0.0,0.0,0.0,0.0,0.0,0.0,0.0,9.93874008601,0.840535650788,0.646755319474,-1.0,0.0,0.0,0.0,0.0,0.0,0.0,0.0,0.0
1598621625404873456,4355,1598621625404681970,xsense,-0.666909564995,0.115481416167,-0.713767034405,-0.180089686639,-1.0,0.0,0.0,0.0,0.0,0.0,0.0,0.0,0.0,0.00435947775216,-0.0181904337593,0.00395565281918,-1.0,0.0,0.0,0.0,0.0,0.0,0.0,0.0,0.0,9.91425976365,0.894359837999,0.686854274408,-1.0,0.0,0.0,0.0,0.0,0.0,0.0,0.0,0.0
1598621625407479667,4356,1598621625407044095,xsense,-0.666917280115,0.115542335566,-0.713768298981,-0.180017014602,-1.0,0.0,0.0,0.0,0.0,0.0,0.0,0.0,0.0,0.00277496905654,-0.00375035254242,0.0185430076286,-1.0,0.0,0.0,0.0,0.0,0.0,0.0,0.0,0.0,9.81509567644,0.875214164482,0.733927862087,-1.0,0.0,0.0,0.0,0.0,0.0,0.0,0.0,0.0
1598621625407858292,4357,1598621625407554781,xsense,-0.666922055339,0.115640814072,-0.713773248374,-0.179916436516,-1.0,0.0,0.0,0.0,0.0,0.0,0.0,0.0,0.0,0.00111569322613,-0.00483620743542,0.0277377540096,-1.0,0.0,0.0,0.0,0.0,0.0,0.0,0.0,0.0,9.73641715318,0.790627936177,0.886308237791,-1.0,0.0,0.0,0.0,0.0,0.0,0.0,0.0,0.0
1598621625452914903,4358,1598621625452410710,xsense,-0.666980407802,0.115733330932,-0.713731445045,-0.17980644058,-1.0,0.0,0.0,0.0,0.0,0.0,0.0,0.0,0.0,0.00406860628925,-0.0187240817683,0.025364855907,-1.0,0.0,0.0,0.0,0.0,0.0,0.0,0.0,0.0,9.68244518517,0.652180164042,0.994533483758,-1.0,0.0,0.0,0.0,0.0,0.0,0.0,0.0,0.0
1598621625453554789,4359,1598621625453109532,xsense,-0.667137434661,0.115800429551,-0.713603001402,-0.179690456561,-1.0,0.0,0.0,0.0,0.0,0.0,0.0,0.0,0.0,0.0100406125716,-0.0435937775302,0.0174297788684,-1.0,0.0,0.0,0.0,0.0,0.0,0.0,0.0,0.0,9.6574787087,0.60201780091,0.995324422657,-1.0,0.0,0.0,0.0,0.0,0.0,0.0,0.0,0.0
1598621625455782179,4360,1598621625455398174,xsense,-0.667384003342,0.115878834542,-0.71338921551,-0.179573146607,-1.0,0.0,0.0,0.0,0.0,0.0,0.0,0.0,0.0,0.00984346912189,-0.0681949998064,0.0139862437753,-1.0,0.0,0.0,0.0,0.0,0.0,0.0,0.0,0.0,9.63516982485,0.700537176252,1.00450248973,-1.0,0.0,0.0,0.0,0.0,0.0,0.0,0.0,0.0
1598621625456227234,4361,1598621625455854981,xsense,-0.667742280783,0.11599718913,-0.713071232324,-0.179427746461,-1.0,0.0,0.0,0.0,0.0,0.0,0.0,0.0,0.0,0.00949146198587,-0.100133359948,0.016994220732,-1.0,0.0,0.0,0.0,0.0,0.0,0.0,0.0,0.0,9.66307967276,0.82020508769,0.985648822222,-1.0,0.0,0.0,0.0,0.0,0.0,0.0,0.0,0.0
1598621625456707754,4362,1598621625456386126,xsense,-0.66817669103,0.116160473881,-0.71268629966,-0.179234182424,-1.0,0.0,0.0,0.0,0.0,0.0,0.0,0.0,0.0,0.0106934719951,-0.122655421481,0.0256957474801,-1.0,0.0,0.0,0.0,0.0,0.0,0.0,0.0,0.0,9.68984273402,0.813233143695,0.926789853433,-1.0,0.0,0.0,0.0,0.0,0.0,0.0,0.0,0.0
1598621625493658275,4363,1598621625493297964,xsense,-0.6686456944,0.11637259828,-0.712271933881,-0.178994541634,-1.0,0.0,0.0,0.0,0.0,0.0,0.0,0.0,0.0,0.0104520471531,-0.134350166873,0.0369326869005,-1.0,0.0,0.0,0.0,0.0,0.0,0.0,0.0,0.0,9.83975801612,0.798378773333,0.820407518972,-1.0,0.0,0.0,0.0,0.0,0.0,0.0,0.0,0.0
1598621625496250701,4364,1598621625495827437,xsense,-0.669038320456,0.11658907927,-0.71192585363,-0.178763226893,-1.0,0.0,0.0,0.0,0.0,0.0,0.0,0.0,0.0,0.00756678348937,-0.114290869412,0.0405500645004,-1.0,0.0,0.0,0.0,0.0,0.0,0.0,0.0,0.0,9.96700832086,0.800601555192,0.638367951499,-1.0,0.0,0.0,0.0,0.0,0.0,0.0,0.0,0.0
1598621625496794725,4365,1598621625496481169,xsense,-0.669320759419,0.11678280929,-0.711681222521,-0.178553448513,-1.0,0.0,0.0,0.0,0.0,0.0,0.0,0.0,0.0,0.00635851036995,-0.0837195480193,0.0406386423453,-1.0,0.0,0.0,0.0,0.0,0.0,0.0,0.0,0.0,9.91992039663,0.73984829459,0.534760029337,-1.0,0.0,0.0,0.0,0.0,0.0,0.0,0.0,0.0
1598621625497336384,4366,1598621625497045212,xsense,-0.669538932887,0.116979171033,-0.711493433391,-0.178355221776,-1.0,0.0,0.0,0.0,0.0,0.0,0.0,0.0,0.0,0.0034622736366,-0.0667793574245,0.0428747114282,-1.0,0.0,0.0,0.0,0.0,0.0,0.0,0.0,0.0,9.86887679022,0.670667756987,0.606008341944,-1.0,0.0,0.0,0.0,0.0,0.0,0.0,0.0,0.0
1598621625533993493,4367,1598621625533577579,xsense,-0.669714548311,0.117184542663,-0.711344811188,-0.178153771602,-1.0,0.0,0.0,0.0,0.0,0.0,0.0,0.0,0.0,0.00201536345933,-0.0558797560734,0.0469349853917,-1.0,0.0,0.0,0.0,0.0,0.0,0.0,0.0,0.0,9.84399924996,0.700194481005,0.694404771492,-1.0,0.0,0.0,0.0,0.0,0.0,0.0,0.0,0.0
1598621625536209339,4368,1598621625535823313,xsense,-0.66985412471,0.117368960556,-0.711220946438,-0.17800209003,-1.0,0.0,0.0,0.0,0.0,0.0,0.0,0.0,0.0,-0.00237886951731,-0.0455191140448,0.0387723403492,-1.0,0.0,0.0,0.0,0.0,0.0,0.0,0.0,0.0,9.79487021808,0.674995012977,0.715070344985,-1.0,0.0,0.0,0.0,0.0,0.0,0.0,0.0,0.0
1598621625536630832,4369,1598621625536276788,xsense,-0.67000688804,0.117496855109,-0.711084445019,-0.177888085802,-1.0,0.0,0.0,0.0,0.0,0.0,0.0,0.0,0.0,0.00079050177681,-0.0461945570208,0.0250827570043,-1.0,0.0,0.0,0.0,0.0,0.0,0.0,0.0,0.0,9.76777454882,0.553165277235,0.745804839467,-1.0,0.0,0.0,0.0,0.0,0.0,0.0,0.0,0.0
1598621625537132866,4370,1598621625536770678,xsense,-0.670181283011,0.117581704795,-0.710928373802,-0.177798869296,-1.0,0.0,0.0,0.0,0.0,0.0,0.0,0.0,0.0,0.00389625456359,-0.0497759740518,0.0145831795154,-1.0,0.0,0.0,0.0,0.0,0.0,0.0,0.0,0.0,9.71981843215,0.550026209778,0.715924969377,-1.0,0.0,0.0,0.0,0.0,0.0,0.0,0.0,0.0
1598621625582987318,4371,1598621625582525751,xsense,-0.670428016053,0.117673671204,-0.710694452002,-0.177743011928,-1.0,0.0,0.0,0.0,0.0,0.0,0.0,0.0,0.0,-0.000846312649516,-0.0699686221108,0.00632255916937,-1.0,0.0,0.0,0.0,0.0,0.0,0.0,0.0,0.0,9.64714781121,0.661533107508,0.84555256532,-1.0,0.0,0.0,0.0,0.0,0.0,0.0,0.0,0.0
1598621625585552502,4372,1598621625585174700,xsense,-0.670813020317,0.117813484941,-0.710332923836,-0.17764293359,-1.0,0.0,0.0,0.0,0.0,0.0,0.0,0.0,0.0,0.000195185075872,-0.109470330766,0.011235164197,-1.0,0.0,0.0,0.0,0.0,0.0,0.0,0.0,0.0,9.60026359985,0.794681780364,0.946242128729,-1.0,0.0,0.0,0.0,0.0,0.0,0.0,0.0,0.0
1598621625586024844,4373,1598621625585713348,xsense,-0.671333252725,0.118038362637,-0.709849642877,-0.177460117318,-1.0,0.0,0.0,0.0,0.0,0.0,0.0,0.0,0.0,0.00114881755107,-0.149995569547,0.0268890844751,-1.0,0.0,0.0,0.0,0.0,0.0,0.0,0.0,0.0,9.60099981163,0.797426123185,0.98239108195,-1.0,0.0,0.0,0.0,0.0,0.0,0.0,0.0,0.0
1598621625586459089,4374,1598621625586223243,xsense,-0.672003087024,0.118309191204,-0.709226461414,-0.177236036792,-1.0,0.0,0.0,0.0,0.0,0.0,0.0,0.0,0.0,0.00217013635119,-0.192616144901,0.0304206701419,-1.0,0.0,0.0,0.0,0.0,0.0,0.0,0.0,0.0,9.55430863024,0.735763444619,0.848301693516,-1.0,0.0,0.0,0.0,0.0,0.0,0.0,0.0,0.0
1598621625587247684,4375,1598621625586652757,xsense,-0.672814360159,0.118634416709,-0.708471246666,-0.176961025604,-1.0,0.0,0.0,0.0,0.0,0.0,0.0,0.0,0.0,0.00319650785137,-0.233569164595,0.0369304760419,-1.0,0.0,0.0,0.0,0.0,0.0,0.0,0.0,0.0,9.677347946,0.710054830681,0.880191214566,-1.0,0.0,0.0,0.0,0.0,0.0,0.0,0.0,0.0
1598621625622771041,4376,1598621625622587813,xsense,-0.67377856081,0.118989281672,-0.707577724096,-0.176628894019,-1.0,0.0,0.0,0.0,0.0,0.0,0.0,0.0,0.0,0.00880613551217,-0.276241668976,0.0404875114723,-1.0,0.0,0.0,0.0,0.0,0.0,0.0,0.0,0.0,9.4826718314,0.640275794139,0.884921042401,-1.0,0.0,0.0,0.0,0.0,0.0,0.0,0.0,0.0
1598621625623411806,4377,1598621625623212503,xsense,-0.674978164034,0.11933410233,-0.706460149438,-0.176289271807,-1.0,0.0,0.0,0.0,0.0,0.0,0.0,0.0,0.0,0.0142310622043,-0.339587262319,0.0266787144449,-1.0,0.0,0.0,0.0,0.0,0.0,0.0,0.0,0.0,9.45739939444,0.49883636368,0.94214711741,-1.0,0.0,0.0,0.0,0.0,0.0,0.0,0.0,0.0
1598621625623605703,4378,1598621625623449859,xsense,-0.676341077737,0.119630576697,-0.705181545267,-0.175983692144,-1.0,0.0,0.0,0.0,0.0,0.0,0.0,0.0,0.0,0.018370858137,-0.381866350917,0.00576538751756,-1.0,0.0,0.0,0.0,0.0,0.0,0.0,0.0,0.0,9.60667321538,0.465096782544,0.861929662063,-1.0,0.0,0.0,0.0,0.0,0.0,0.0,0.0,0.0
1598621625623768442,4379,1598621625623610218,xsense,-0.677829124578,0.119889883116,-0.703770899514,-0.17572881038,-1.0,0.0,0.0,0.0,0.0,0.0,0.0,0.0,0.0,0.0180074458351,-0.414878107943,-0.0140564674185,-1.0,0.0,0.0,0.0,0.0,0.0,0.0,0.0,0.0,9.61111974588,0.524756464852,0.670835793496,-1.0,0.0,0.0,0.0,0.0,0.0,0.0,0.0,0.0
1598621625672865076,4380,1598621625672366388,xsense,-0.679443837397,0.12012846175,-0.702229400394,-0.175496705734,-1.0,0.0,0.0,0.0,0.0,0.0,0.0,0.0,0.0,0.0191440119922,-0.449148019809,-0.0277059985377,-1.0,0.0,0.0,0.0,0.0,0.0,0.0,0.0,0.0,9.6628633665,0.582517268449,0.451856498792,-1.0,0.0,0.0,0.0,0.0,0.0,0.0,0.0,0.0
1598621625673437746,4381,1598621625672952822,xsense,-0.681092633484,0.120327886027,-0.700651770296,-0.175274416954,-1.0,0.0,0.0,0.0,0.0,0.0,0.0,0.0,0.0,0.02364123633,-0.457259517534,-0.0364976357771,-1.0,0.0,0.0,0.0,0.0,0.0,0.0,0.0,0.0,9.78987724824,0.728678626978,0.392737189716,-1.0,0.0,0.0,0.0,0.0,0.0,0.0,0.0,0.0
1598621625675807571,4382,1598621625675445677,xsense,-0.682775040678,0.120605937647,-0.69902086894,-0.175049354234,-1.0,0.0,0.0,0.0,0.0,0.0,0.0,0.0,0.0,0.0128934531068,-0.472024104375,-0.0280693594803,-1.0,0.0,0.0,0.0,0.0,0.0,0.0,0.0,0.0,9.69331471716,0.731821074416,0.324314012719,-1.0,0.0,0.0,0.0,0.0,0.0,0.0,0.0,0.0
1598621625676152912,4383,1598621625675966384,xsense,-0.684486015299,0.120914701251,-0.697358802658,-0.174783380895,-1.0,0.0,0.0,0.0,0.0,0.0,0.0,0.0,0.0,0.0144393873707,-0.482359073203,-0.0199405339141,-1.0,0.0,0.0,0.0,0.0,0.0,0.0,0.0,0.0,9.79648368218,0.772495354904,0.443746023205,-1.0,0.0,0.0,0.0,0.0,0.0,0.0,0.0,0.0
1598621625676793965,4384,1598621625676471617,xsense,-0.686249441856,0.121245935512,-0.69563479449,-0.17450890914,-1.0,0.0,0.0,0.0,0.0,0.0,0.0,0.0,0.0,0.0127997434274,-0.499122045355,-0.0191084289617,-1.0,0.0,0.0,0.0,0.0,0.0,0.0,0.0,0.0,9.57535152071,0.699529423248,0.335179246681,-1.0,0.0,0.0,0.0,0.0,0.0,0.0,0.0,0.0
1598621625713471715,4385,1598621625713109008,xsense,-0.688145740876,0.121613563301,-0.693769986375,-0.174209031168,-1.0,0.0,0.0,0.0,0.0,0.0,0.0,0.0,0.0,0.0124536029242,-0.538843625433,-0.0187182229998,-1.0,0.0,0.0,0.0,0.0,0.0,0.0,0.0,0.0,9.65223055354,0.660450844698,0.385017331366,-1.0,0.0,0.0,0.0,0.0,0.0,0.0,0.0,0.0
1598621625714206709,4386,1598621625713741548,xsense,-0.690145284452,0.121997106944,-0.691793574848,-0.173890316133,-1.0,0.0,0.0,0.0,0.0,0.0,0.0,0.0,0.0,0.0137134990772,-0.569517681904,-0.0203104067361,-1.0,0.0,0.0,0.0,0.0,0.0,0.0,0.0,0.0,9.67985211828,0.688467581446,0.352503026389,-1.0,0.0,0.0,0.0,0.0,0.0,0.0,0.0,0.0
1598621625716662062,4387,1598621625716274491,xsense,-0.692270525007,0.122437521551,-0.689675740948,-0.173545227162,-1.0,0.0,0.0,0.0,0.0,0.0,0.0,0.0,0.0,0.0104141234295,-0.609079156331,-0.0168004379766,-1.0,0.0,0.0,0.0,0.0,0.0,0.0,0.0,0.0,9.461520333,0.717063157798,0.277894534426,-1.0,0.0,0.0,0.0,0.0,0.0,0.0,0.0,0.0
1598621625717236418,4388,1598621625716906608,xsense,-0.694579568483,0.122923580284,-0.68736933257,-0.173125437469,-1.0,0.0,0.0,0.0,0.0,0.0,0.0,0.0,0.0,0.0162147573096,-0.663926468145,-0.0112194638813,-1.0,0.0,0.0,0.0,0.0,0.0,0.0,0.0,0.0,9.68811950573,0.771581791631,0.299399407137,-1.0,0.0,0.0,0.0,0.0,0.0,0.0,0.0,0.0
1598621625754004596,4389,1598621625753576769,xsense,-0.696951418849,0.123463113119,-0.684983603185,-0.172664538429,-1.0,0.0,0.0,0.0,0.0,0.0,0.0,0.0,0.0,0.0148106949034,-0.686472987638,-0.00243264942382,-1.0,0.0,0.0,0.0,0.0,0.0,0.0,0.0,0.0,9.6637188074,0.746179828521,0.213295259099,-1.0,0.0,0.0,0.0,0.0,0.0,0.0,0.0,0.0
1598621625756658996,4390,1598621625756274214,xsense,-0.699433870506,0.124037987566,-0.682468180854,-0.172174389943,-1.0,0.0,0.0,0.0,0.0,0.0,0.0,0.0,0.0,0.0146511484808,-0.721614927085,-0.000706521955065,-1.0,0.0,0.0,0.0,0.0,0.0,0.0,0.0,0.0,9.51066105248,0.713528115586,0.0352998132842,-1.0,0.0,0.0,0.0,0.0,0.0,0.0,0.0,0.0
1598621625757162965,4391,1598621625756841555,xsense,-0.70214328879,0.124639902266,-0.679707694265,-0.171630845501,-1.0,0.0,0.0,0.0,0.0,0.0,0.0,0.0,0.0,0.0201806084726,-0.789164142322,-0.00370667420466,-1.0,0.0,0.0,0.0,0.0,0.0,0.0,0.0,0.0,9.43925979812,0.598530012507,0.028764065443,-1.0,0.0,0.0,0.0,0.0,0.0,0.0,0.0,0.0
1598621625757538509,4392,1598621625757348746,xsense,-0.704944641126,0.125267623743,-0.676818437493,-0.171107796603,-1.0,0.0,0.0,0.0,0.0,0.0,0.0,0.0,0.0,0.013725221307,-0.820087783383,-0.00957912238923,-1.0,0.0,0.0,0.0,0.0,0.0,0.0,0.0,0.0,9.79108115822,0.581587229396,0.0740113102415,-1.0,0.0,0.0,0.0,0.0,0.0,0.0,0.0,0.0
1598621625793996285,4393,1598621625793520916,xsense,-0.707818219365,0.125863284397,-0.67383652101,-0.170575921305,-1.0,0.0,0.0,0.0,0.0,0.0,0.0,0.0,0.0,0.0194732418256,-0.842092475414,-0.0178889895626,-1.0,0.0,0.0,0.0,0.0,0.0,0.0,0.0,0.0,9.48730206941,0.623686516357,-0.132401461753,-1.0,0.0,0.0,0.0,0.0,0.0,0.0,0.0,0.0
1598621625796340353,4394,1598621625795997952,xsense,-0.710865003238,0.126454254444,-0.670644442743,-0.170047934779,-1.0,0.0,0.0,0.0,0.0,0.0,0.0,0.0,0.0,0.0201600196122,-0.894889013535,-0.0306029715622,-1.0,0.0,0.0,0.0,0.0,0.0,0.0,0.0,0.0,9.64667490448,0.637192388855,-0.330165612425,-1.0,0.0,0.0,0.0,0.0,0.0,0.0,0.0,0.0
1598621625796832471,4395,1598621625796538974,xsense,-0.713883305049,0.127037289953,-0.667457076573,-0.169508715603,-1.0,0.0,0.0,0.0,0.0,0.0,0.0,0.0,0.0,0.0219839611934,-0.890452900491,-0.0293493789955,-1.0,0.0,0.0,0.0,0.0,0.0,0.0,0.0,0.0,9.95903482617,0.657659358727,-0.451530285417,-1.0,0.0,0.0,0.0,0.0,0.0,0.0,0.0,0.0
1598621625797260514,4396,1598621625797041175,xsense,-0.716787248815,0.127609081642,-0.664352676133,-0.169019182147,-1.0,0.0,0.0,0.0,0.0,0.0,0.0,0.0,0.0,0.0146097416796,-0.861657769139,-0.0318635728771,-1.0,0.0,0.0,0.0,0.0,0.0,0.0,0.0,0.0,9.71615905609,0.864841037281,-0.729132064327,-1.0,0.0,0.0,0.0,0.0,0.0,0.0,0.0,0.0
1598621625843072012,4397,1598621625842514147,xsense,-0.719758423522,0.128233634189,-0.661169814264,-0.168399594826,-1.0,0.0,0.0,0.0,0.0,0.0,0.0,0.0,0.0,0.0265266032991,-0.886979083165,-0.011392175995,-1.0,0.0,0.0,0.0,0.0,0.0,0.0,0.0,0.0,9.78828730042,0.918620560626,-0.779660881497,-1.0,0.0,0.0,0.0,0.0,0.0,0.0,0.0,0.0
1598621625845756073,4398,1598621625845348213,xsense,-0.722580253247,0.128934635018,-0.658111416285,-0.167758759135,-1.0,0.0,0.0,0.0,0.0,0.0,0.0,0.0,0.0,0.0176256066997,-0.852395915074,0.0104491518913,-1.0,0.0,0.0,0.0,0.0,0.0,0.0,0.0,0.0,9.97305129982,0.955940294842,-0.720835657084,-1.0,0.0,0.0,0.0,0.0,0.0,0.0,0.0,0.0
1598621625846104086,4399,1598621625845780084,xsense,-0.725364512091,0.129722830766,-0.655077359491,-0.16700887659,-1.0,0.0,0.0,0.0,0.0,0.0,0.0,0.0,0.0,0.0212951268798,-0.849709756528,0.0391876269154,-1.0,0.0,0.0,0.0,0.0,0.0,0.0,0.0,0.0,9.68457215536,1.04413618405,-0.898952456305,-1.0,0.0,0.0,0.0,0.0,0.0,0.0,0.0,0.0
1598621625846439397,4400,1598621625846116020,xsense,-0.728181543107,0.130637467939,-0.651984814896,-0.166136369871,-1.0,0.0,0.0,0.0,0.0,0.0,0.0,0.0,0.0,0.0220758352827,-0.869854224239,0.0707939661065,-1.0,0.0,0.0,0.0,0.0,0.0,0.0,0.0,0.0,9.71822366295,0.904274857489,-0.851207331334,-1.0,0.0,0.0,0.0,0.0,0.0,0.0,0.0,0.0
1598621625846898879,4401,1598621625846675919,xsense,-0.730982444139,0.1315643781,-0.648886288865,-0.16523336497,-1.0,0.0,0.0,0.0,0.0,0.0,0.0,0.0,0.0,0.0242544048898,-0.869861451871,0.0767845332735,-1.0,0.0,0.0,0.0,0.0,0.0,0.0,0.0,0.0,9.75187971988,0.543947502721,-0.783044315454,-1.0,0.0,0.0,0.0,0.0,0.0,0.0,0.0,0.0
1598621625883108626,4402,1598621625882843725,xsense,-0.733889798217,0.132445306812,-0.645628648922,-0.164400889499,-1.0,0.0,0.0,0.0,0.0,0.0,0.0,0.0,0.0,0.0192122433479,-0.903528718478,0.0528461611038,-1.0,0.0,0.0,0.0,0.0,0.0,0.0,0.0,0.0,9.26618943757,0.366009273935,-0.896452412035,-1.0,0.0,0.0,0.0,0.0,0.0,0.0,0.0,0.0
1598621625884366107,4403,1598621625884116780,xsense,-0.737019412955,0.13323101577,-0.642106692467,-0.163556952936,-1.0,0.0,0.0,0.0,0.0,0.0,0.0,0.0,0.0,0.0335187989723,-0.968233540618,0.0257709395895,-1.0,0.0,0.0,0.0,0.0,0.0,0.0,0.0,0.0,9.64025016205,0.511352941724,-0.941589355283,-1.0,0.0,0.0,0.0,0.0,0.0,0.0,0.0,0.0
1598621625887582316,4404,1598621625887159015,xsense,-0.740067190548,0.133960099427,-0.638637624555,-0.162779696949,-1.0,0.0,0.0,0.0,0.0,0.0,0.0,0.0,0.0,0.0296715113523,-0.946262643853,0.0127722475985,-1.0,0.0,0.0,0.0,0.0,0.0,0.0,0.0,0.0,9.84014272415,0.608079350838,-1.25792106783,-1.0,0.0,0.0,0.0,0.0,0.0,0.0,0.0,0.0
1598621625887929758,4405,1598621625887693427,xsense,-0.743096035562,0.134701507732,-0.635155352473,-0.161992172561,-1.0,0.0,0.0,0.0,0.0,0.0,0.0,0.0,0.0,0.0286657988382,-0.946518207259,0.0159817398104,-1.0,0.0,0.0,0.0,0.0,0.0,0.0,0.0,0.0,9.69566494648,0.770985145599,-1.66681895656,-1.0,0.0,0.0,0.0,0.0,0.0,0.0,0.0,0.0
1598621625924111663,4406,1598621625923686801,xsense,-0.745967076159,0.135437101571,-0.631830822534,-0.161182271047,-1.0,0.0,0.0,0.0,0.0,0.0,0.0,0.0,0.0,0.0318483332165,-0.903399617456,0.0273257779376,-1.0,0.0,0.0,0.0,0.0,0.0,0.0,0.0,0.0,10.0346341968,0.818441555786,-1.7349573315,-1.0,0.0,0.0,0.0,0.0,0.0,0.0,0.0,0.0
1598621625925484215,4407,1598621625925154920,xsense,-0.748632550751,0.136176226359,-0.62870431618,-0.160425129413,-1.0,0.0,0.0,0.0,0.0,0.0,0.0,0.0,0.0,0.0222872331651,-0.84660028449,0.0331352419364,-1.0,0.0,0.0,0.0,0.0,0.0,0.0,0.0,0.0,9.79076037245,0.77711901087,-1.71943298526,-1.0,0.0,0.0,0.0,0.0,0.0,0.0,0.0,0.0
1598621625925946706,4408,1598621625925650470,xsense,-0.751309674207,0.136942485736,-0.625534861483,-0.159645438746,-1.0,0.0,0.0,0.0,0.0,0.0,0.0,0.0,0.0,0.0214362077293,-0.85594344181,0.0383402079268,-1.0,0.0,0.0,0.0,0.0,0.0,0.0,0.0,0.0,9.48987706059,0.659027934266,-1.72675483418,-1.0,0.0,0.0,0.0,0.0,0.0,0.0,0.0,0.0
1598621625926393750,4409,1598621625926073514,xsense,-0.754005542835,0.137660135022,-0.622323332759,-0.158867863659,-1.0,0.0,0.0,0.0,0.0,0.0,0.0,0.0,0.0,0.0266647456368,-0.863029908965,0.028913519439,-1.0,0.0,0.0,0.0,0.0,0.0,0.0,0.0,0.0,9.79549183654,0.515735408091,-1.49117927879,-1.0,0.0,0.0,0.0,0.0,0.0,0.0,0.0,0.0
1598621625960437144,4410,1598621625959909834,xsense,-0.756686199205,0.138319547285,-0.619099662469,-0.158143310647,-1.0,0.0,0.0,0.0,0.0,0.0,0.0,0.0,0.0,0.0250809960115,-0.859628103181,0.0135658856913,-1.0,0.0,0.0,0.0,0.0,0.0,0.0,0.0,0.0,9.39845685096,0.475717864494,-1.70557218388,-1.0,0.0,0.0,0.0,0.0,0.0,0.0,0.0,0.0
1598621625961112471,4411,1598621625960707405,xsense,-0.759511224807,0.13897133707,-0.615675416347,-0.157395834032,-1.0,0.0,0.0,0.0,0.0,0.0,0.0,0.0,0.0,0.0285249145491,-0.908287015921,0.00490869663627,-1.0,0.0,0.0,0.0,0.0,0.0,0.0,0.0,0.0,9.40071792434,0.703782927203,-1.94348037791,-1.0,0.0,0.0,0.0,0.0,0.0,0.0,0.0,0.0
1598621625963311841,4412,1598621625962931336,xsense,-0.762315975721,0.139628191671,-0.612250403623,-0.156613423797,-1.0,0.0,0.0,0.0,0.0,0.0,0.0,0.0,0.0,0.0325348349766,-0.907002334632,0.0105232505127,-1.0,0.0,0.0,0.0,0.0,0.0,0.0,0.0,0.0,9.77509437807,0.791012761911,-1.88746930133,-1.0,0.0,0.0,0.0,0.0,0.0,0.0,0.0,0.0
1598621625963887811,4413,1598621625963519772,xsense,-0.765018800162,0.140377690241,-0.608895326227,-0.155842295863,-1.0,0.0,0.0,0.0,0.0,0.0,0.0,0.0,0.0,0.0182470329197,-0.886482267833,0.0283000430993,-1.0,0.0,0.0,0.0,0.0,0.0,0.0,0.0,0.0,9.54193271946,0.773439329008,-2.11832260312,-1.0,0.0,0.0,0.0,0.0,0.0,0.0,0.0,0.0
1598621625994038866,4414,1598621625993740697,xsense,-0.767787775229,0.14119229736,-0.605437916486,-0.154956757377,-1.0,0.0,0.0,0.0,0.0,0.0,0.0,0.0,0.0,0.026995962739,-0.915400222678,0.0471514878054,-1.0,0.0,0.0,0.0,0.0,0.0,0.0,0.0,0.0,9.43531345276,0.774372965472,-2.15476088466,-1.0,0.0,0.0,0.0,0.0,0.0,0.0,0.0,0.0
1598621625995194404,4415,1598621625994929981,xsense,-0.770505618425,0.142057805839,-0.602012049085,-0.154020013416,-1.0,0.0,0.0,0.0,0.0,0.0,0.0,0.0,0.0,0.0280209563045,-0.907416951478,0.0635880435271,-1.0,0.0,0.0,0.0,0.0,0.0,0.0,0.0,0.0,9.71827839662,0.762268901263,-2.07289506187,-1.0,0.0,0.0,0.0,0.0,0.0,0.0,0.0,0.0
1598621625995858001,4416,1598621625995452350,xsense,-0.773174378522,0.142921146365,-0.598606170616,-0.153119491965,-1.0,0.0,0.0,0.0,0.0,0.0,0.0,0.0,0.0,0.021736526056,-0.897302551084,0.0609044941769,-1.0,0.0,0.0,0.0,0.0,0.0,0.0,0.0,0.0,9.45896563813,0.660529136237,-2.35996103754,-1.0,0.0,0.0,0.0,0.0,0.0,0.0,0.0,0.0
1598621626042665444,4417,1598621626042124856,xsense,-0.775830018645,0.14378071532,-0.595193408768,-0.152183094433,-1.0,0.0,0.0,0.0,0.0,0.0,0.0,0.0,0.0,0.0271592551966,-0.897738013537,0.0647792375639,-1.0,0.0,0.0,0.0,0.0,0.0,0.0,0.0,0.0,9.63303247401,0.715726424597,-2.56370760972,-1.0,0.0,0.0,0.0,0.0,0.0,0.0,0.0,0.0
1598621626045129615,4418,1598621626044680453,xsense,-0.778355466514,0.144655945299,-0.591904357474,-0.151283366043,-1.0,0.0,0.0,0.0,0.0,0.0,0.0,0.0,0.0,0.0191779572841,-0.862434499999,0.0703548200487,-1.0,0.0,0.0,0.0,0.0,0.0,0.0,0.0,0.0,9.52506186423,0.689627060216,-2.59327485271,-1.0,0.0,0.0,0.0,0.0,0.0,0.0,0.0,0.0
1598621626045728524,4419,1598621626045360410,xsense,-0.780859012819,0.14550765172,-0.588624920123,-0.150357669574,-1.0,0.0,0.0,0.0,0.0,0.0,0.0,0.0,0.0,0.0256431244569,-0.858408998997,0.0706913004902,-1.0,0.0,0.0,0.0,0.0,0.0,0.0,0.0,0.0,9.44110338168,0.638400847254,-2.62430948431,-1.0,0.0,0.0,0.0,0.0,0.0,0.0,0.0,0.0
1598621626046131247,4420,1598621626045884937,xsense,-0.783341664373,0.146331245567,-0.585348630363,-0.14943220657,-1.0,0.0,0.0,0.0,0.0,0.0,0.0,0.0,0.0,0.0283570316154,-0.85458105248,0.066976362395,-1.0,0.0,0.0,0.0,0.0,0.0,0.0,0.0,0.0,9.46568003674,0.540714238299,-2.63379334919,-1.0,0.0,0.0,0.0,0.0,0.0,0.0,0.0,0.0
1598621626046564721,4421,1598621626046330560,xsense,-0.785791932738,0.147174088566,-0.582078215883,-0.148511873914,-1.0,0.0,0.0,0.0,0.0,0.0,0.0,0.0,0.0,0.0245246509214,-0.850330234638,0.0705146889808,-1.0,0.0,0.0,0.0,0.0,0.0,0.0,0.0,0.0,9.28158553565,0.611663879762,-2.66630008319,-1.0,0.0,0.0,0.0,0.0,0.0,0.0,0.0,0.0
1598621626083647988,4422,1598621626083214467,xsense,-0.78836346267,0.148013385906,-0.57862016921,-0.147559439223,-1.0,0.0,0.0,0.0,0.0,0.0,0.0,0.0,0.0,0.0280406231038,-0.894739340852,0.0645523394108,-1.0,0.0,0.0,0.0,0.0,0.0,0.0,0.0,0.0,9.14204440899,0.527588418417,-2.77539015695,-1.0,0.0,0.0,0.0,0.0,0.0,0.0,0.0,0.0
1598621626084111516,4423,1598621626083805372,xsense,-0.790950230666,0.148826180014,-0.575110364139,-0.146617085674,-1.0,0.0,0.0,0.0,0.0,0.0,0.0,0.0,0.0,0.028454852508,-0.903607114678,0.0572248023117,-1.0,0.0,0.0,0.0,0.0,0.0,0.0,0.0,0.0,9.57629446989,0.559889794233,-2.74406423698,-1.0,0.0,0.0,0.0,0.0,0.0,0.0,0.0,0.0
1598621626085162538,4424,1598621626084836793,xsense,-0.79348797101,0.149703376004,-0.571615775447,-0.145674789635,-1.0,0.0,0.0,0.0,0.0,0.0,0.0,0.0,0.0,0.020034179044,-0.897423508673,0.0693149531254,-1.0,0.0,0.0,0.0,0.0,0.0,0.0,0.0,0.0,9.0363834525,0.635310562652,-2.9581794322,-1.0,0.0,0.0,0.0,0.0,0.0,0.0,0.0,0.0
1598621626085582444,4425,1598621626085349219,xsense,-0.796178314605,0.15055189491,-0.567905697107,-0.14462827346,-1.0,0.0,0.0,0.0,0.0,0.0,0.0,0.0,0.0,0.0378656621333,-0.951380893171,0.0658297795339,-1.0,0.0,0.0,0.0,0.0,0.0,0.0,0.0,0.0,9.23192098437,0.552985501761,-3.06809132027,-1.0,0.0,0.0,0.0,0.0,0.0,0.0,0.0,0.0
1598621626123382596,4426,1598621626123181487,xsense,-0.798754449592,0.151398842876,-0.564305718118,-0.143627212367,-1.0,0.0,0.0,0.0,0.0,0.0,0.0,0.0,0.0,0.0307982772975,-0.919434632973,0.0670419919448,-1.0,0.0,0.0,0.0,0.0,0.0,0.0,0.0,0.0,9.55226186294,0.549574788595,-3.13666874691,-1.0,0.0,0.0,0.0,0.0,0.0,0.0,0.0,0.0
1598621626124700186,4427,1598621626124319820,xsense,-0.801295366937,0.152230726984,-0.560717462881,-0.142644549518,-1.0,0.0,0.0,0.0,0.0,0.0,0.0,0.0,0.0,0.028920488281,-0.912626091521,0.0639589661181,-1.0,0.0,0.0,0.0,0.0,0.0,0.0,0.0,0.0,9.01509931664,0.506540004161,-3.30229320988,-1.0,0.0,0.0,0.0,0.0,0.0,0.0,0.0,0.0
1598621626125285481,4428,1598621626124936400,xsense,-0.803907770302,0.153009264911,-0.557007175523,-0.141645572168,-1.0,0.0,0.0,0.0,0.0,0.0,0.0,0.0,0.0,0.0358236234517,-0.939145702145,0.051584623761,-1.0,0.0,0.0,0.0,0.0,0.0,0.0,0.0,0.0,9.2087342445,0.438548505352,-3.28751531341,-1.0,0.0,0.0,0.0,0.0,0.0,0.0,0.0,0.0
1598621626125780563,4429,1598621626125563528,xsense,-0.806424064457,0.153697325314,-0.553400204045,-0.140732279945,-1.0,0.0,0.0,0.0,0.0,0.0,0.0,0.0,0.0,0.0325785818981,-0.90667222799,0.0333565332309,-1.0,0.0,0.0,0.0,0.0,0.0,0.0,0.0,0.0,9.40525282809,0.535803363878,-3.34884896559,-1.0,0.0,0.0,0.0,0.0,0.0,0.0,0.0,0.0
1598621626163875031,4430,1598621626163420262,xsense,-0.808948897256,0.154436895255,-0.54971954955,-0.139854724108,-1.0,0.0,0.0,0.0,0.0,0.0,0.0,0.0,0.0,0.0190758074014,-0.919822526193,0.0353759751198,-1.0,0.0,0.0,0.0,0.0,0.0,0.0,0.0,0.0,8.8669504578,0.442089134874,-3.54769137976,-1.0,0.0,0.0,0.0,0.0,0.0,0.0,0.0,0.0
1598621626164466038,4431,1598621626164205075,xsense,-0.811473419492,0.155154082055,-0.546019389506,-0.138927774629,-1.0,0.0,0.0,0.0,0.0,0.0,0.0,0.0,0.0,0.0289267832661,-0.923867935644,0.0366449907496,-1.0,0.0,0.0,0.0,0.0,0.0,0.0,0.0,0.0,9.46082976962,0.652621480069,-3.50826963467,-1.0,0.0,0.0,0.0,0.0,0.0,0.0,0.0,0.0
1598621626165144188,4432,1598621626164790962,xsense,-0.81384646016,0.155873493541,-0.54249248412,-0.138055416301,-1.0,0.0,0.0,0.0,0.0,0.0,0.0,0.0,0.0,0.0209813586348,-0.877550440659,0.040563214154,-1.0,0.0,0.0,0.0,0.0,0.0,0.0,0.0,0.0,9.1832063139,0.602123239654,-3.77127300302,-1.0,0.0,0.0,0.0,0.0,0.0,0.0,0.0,0.0
1598621626167718348,4433,1598621626167457734,xsense,-0.816230777054,0.156602397163,-0.53892524555,-0.137122527331,-1.0,0.0,0.0,0.0,0.0,0.0,0.0,0.0,0.0,0.0288705686537,-0.887515104123,0.0472071255028,-1.0,0.0,0.0,0.0,0.0,0.0,0.0,0.0,0.0,8.93428359456,0.510141440495,-3.95690972268,-1.0,0.0,0.0,0.0,0.0,0.0,0.0,0.0,0.0
1598621626213293640,4434,1598621626212859072,xsense,-0.818492444434,0.157319234977,-0.535507818355,-0.1362062891,-1.0,0.0,0.0,0.0,0.0,0.0,0.0,0.0,0.0,0.0287689061219,-0.848959428449,0.0513961218674,-1.0,0.0,0.0,0.0,0.0,0.0,0.0,0.0,0.0,9.41062767699,0.599365986161,-3.88555515729,-1.0,0.0,0.0,0.0,0.0,0.0,0.0,0.0,0.0
1598621626213791397,4435,1598621626213486325,xsense,-0.820677481541,0.158023024386,-0.532173688771,-0.135308388634,-1.0,0.0,0.0,0.0,0.0,0.0,0.0,0.0,0.0,0.0277087530274,-0.826203992883,0.05197651637,-1.0,0.0,0.0,0.0,0.0,0.0,0.0,0.0,0.0,8.8324112845,0.563649733591,-3.96240499274,-1.0,0.0,0.0,0.0,0.0,0.0,0.0,0.0,0.0
1598621626216341409,4436,1598621626215937913,xsense,-0.822981281254,0.158789683155,-0.528627688926,-0.134314607282,-1.0,0.0,0.0,0.0,0.0,0.0,0.0,0.0,0.0,0.0332617378054,-0.878331890193,0.0630135188245,-1.0,0.0,0.0,0.0,0.0,0.0,0.0,0.0,0.0,8.69133720685,0.531556272425,-3.81453210869,-1.0,0.0,0.0,0.0,0.0,0.0,0.0,0.0,0.0
1598621626216998004,4437,1598621626216558455,xsense,-0.825270054497,0.159524119544,-0.525082280592,-0.13330412988,-1.0,0.0,0.0,0.0,0.0,0.0,0.0,0.0,0.0,0.0390446761535,-0.876341669961,0.059961574133,-1.0,0.0,0.0,0.0,0.0,0.0,0.0,0.0,0.0,9.28024274655,0.583639410631,-3.8627756916,-1.0,0.0,0.0,0.0,0.0,0.0,0.0,0.0,0.0
1598621626217294262,4438,1598621626216994337,xsense,-0.827489613873,0.16027054541,-0.521602457051,-0.132307097333,-1.0,0.0,0.0,0.0,0.0,0.0,0.0,0.0,0.0,0.0358006599318,-0.858107370626,0.0644919109801,-1.0,0.0,0.0,0.0,0.0,0.0,0.0,0.0,0.0,8.77121747107,0.49292690441,-4.20843994181,-1.0,0.0,0.0,0.0,0.0,0.0,0.0,0.0,0.0
1598621626252688851,4439,1598621626252352986,xsense,-0.829735649346,0.160994051613,-0.518052842777,-0.131304682474,-1.0,0.0,0.0,0.0,0.0,0.0,0.0,0.0,0.0,0.037559125387,-0.872007928928,0.0585606884396,-1.0,0.0,0.0,0.0,0.0,0.0,0.0,0.0,0.0,8.78757611733,0.480399285706,-4.34039665959,-1.0,0.0,0.0,0.0,0.0,0.0,0.0,0.0,0.0
1598621626255195518,4440,1598621626254762199,xsense,-0.83189640015,0.161673188622,-0.514610131404,-0.130332544494,-1.0,0.0,0.0,0.0,0.0,0.0,0.0,0.0,0.0,0.0383211783321,-0.843268814853,0.0536182611395,-1.0,0.0,0.0,0.0,0.0,0.0,0.0,0.0,0.0,9.1582157906,0.463223747187,-4.3324901872,-1.0,0.0,0.0,0.0,0.0,0.0,0.0,0.0,0.0
1598621626255590574,4441,1598621626255300280,xsense,-0.833945635847,0.162312044326,-0.511303638512,-0.129452948839,-1.0,0.0,0.0,0.0,0.0,0.0,0.0,0.0,0.0,0.0285784910395,-0.805110417173,0.0445451608349,-1.0,0.0,0.0,0.0,0.0,0.0,0.0,0.0,0.0,8.71739793816,0.401288377786,-4.4256547852,-1.0,0.0,0.0,0.0,0.0,0.0,0.0,0.0,0.0
1598621626256360854,4442,1598621626255802309,xsense,-0.836026724528,0.162925546225,-0.507910435313,-0.128614042632,-1.0,0.0,0.0,0.0,0.0,0.0,0.0,0.0,0.0,0.0223836093189,-0.820827347272,0.0328794392334,-1.0,0.0,0.0,0.0,0.0,0.0,0.0,0.0,0.0,8.65422121634,0.407470046885,-4.39707104195,-1.0,0.0,0.0,0.0,0.0,0.0,0.0,0.0,0.0
1598621626293908097,4443,1598621626293538172,xsense,-0.838123899276,0.163524538776,-0.504456917666,-0.127793868784,-1.0,0.0,0.0,0.0,0.0,0.0,0.0,0.0,0.0,0.0191803267631,-0.831582149341,0.0264709479457,-1.0,0.0,0.0,0.0,0.0,0.0,0.0,0.0,0.0,8.7759591668,0.414566528777,-4.39207123037,-1.0,0.0,0.0,0.0,0.0,0.0,0.0,0.0,0.0
1598621626295293410,4444,1598621626294875695,xsense,-0.840237028811,0.164108595084,-0.50094486219,-0.126981689543,-1.0,0.0,0.0,0.0,0.0,0.0,0.0,0.0,0.0,0.0178339187433,-0.842341746572,0.0211466469432,-1.0,0.0,0.0,0.0,0.0,0.0,0.0,0.0,0.0,8.63011649765,0.411055347491,-4.45726044567,-1.0,0.0,0.0,0.0,0.0,0.0,0.0,0.0,0.0
1598621626295783639,4445,1598621626295446197,xsense,-0.842331714462,0.164646981375,-0.497452010664,-0.126135448711,-1.0,0.0,0.0,0.0,0.0,0.0,0.0,0.0,0.0,0.0282998014471,-0.837247628213,0.0179725145774,-1.0,0.0,0.0,0.0,0.0,0.0,0.0,0.0,0.0,8.77395654298,0.513671550653,-4.71092753215,-1.0,0.0,0.0,0.0,0.0,0.0,0.0,0.0,0.0
1598621626296273499,4446,1598621626295947726,xsense,-0.844360473486,0.165232462013,-0.494015022523,-0.125310741094,-1.0,0.0,0.0,0.0,0.0,0.0,0.0,0.0,0.0,0.0201587697265,-0.821733442924,0.0273492579357,-1.0,0.0,0.0,0.0,0.0,0.0,0.0,0.0,0.0,8.58211583018,0.520676308436,-4.89222362974,-1.0,0.0,0.0,0.0,0.0,0.0,0.0,0.0,0.0
1598621626334101821,4447,1598621626333599235,xsense,-0.846379075561,0.165826609598,-0.490564811263,-0.124459479161,-1.0,0.0,0.0,0.0,0.0,0.0,0.0,0.0,0.0,0.0230997174079,-0.824085312732,0.0314383227636,-1.0,0.0,0.0,0.0,0.0,0.0,0.0,0.0,0.0,8.47829527776,0.481629373459,-4.83099957389,-1.0,0.0,0.0,0.0,0.0,0.0,0.0,0.0,0.0
1598621626336609185,4448,1598621626336219748,xsense,-0.848369835191,0.166434565326,-0.487128539632,-0.123587799065,-1.0,0.0,0.0,0.0,0.0,0.0,0.0,0.0,0.0,0.0249660176236,-0.819987190094,0.0370518469167,-1.0,0.0,0.0,0.0,0.0,0.0,0.0,0.0,0.0,8.62339297819,0.575516378363,-4.71070984193,-1.0,0.0,0.0,0.0,0.0,0.0,0.0,0.0,0.0
1598621626336975126,4449,1598621626336712709,xsense,-0.850363660075,0.167045550912,-0.483650808035,-0.122716443199,-1.0,0.0,0.0,0.0,0.0,0.0,0.0,0.0,0.0,0.0233180865182,-0.82739430228,0.0364037540528,-1.0,0.0,0.0,0.0,0.0,0.0,0.0,0.0,0.0,8.20700448017,0.487140867822,-4.81668646144,-1.0,0.0,0.0,0.0,0.0,0.0,0.0,0.0,0.0
1598621626337946544,4450,1598621626337523124,xsense,-0.852493439387,0.167648566202,-0.479916807314,-0.121773363714,-1.0,0.0,0.0,0.0,0.0,0.0,0.0,0.0,0.0,0.0310557860345,-0.88632109606,0.0311580261632,-1.0,0.0,0.0,0.0,0.0,0.0,0.0,0.0,0.0,8.20159582797,0.363106511139,-4.86672688739,-1.0,0.0,0.0,0.0,0.0,0.0,0.0,0.0,0.0
1598621626338322447,4451,1598621626338027602,xsense,-0.854636783561,0.168265882927,-0.476101699402,-0.120870727037,-1.0,0.0,0.0,0.0,0.0,0.0,0.0,0.0,0.0,0.0204039452639,-0.900468003892,0.0272810060964,-1.0,0.0,0.0,0.0,0.0,0.0,0.0,0.0,0.0,8.58378226326,0.388821121067,-4.96721109749,-1.0,0.0,0.0,0.0,0.0,0.0,0.0,0.0,0.0
1598621626383494807,4452,1598621626383113234,xsense,-0.856711719162,0.168872030779,-0.472369703985,-0.119975540127,-1.0,0.0,0.0,0.0,0.0,0.0,0.0,0.0,0.0,0.0213318901479,-0.879203174733,0.0289772956983,-1.0,0.0,0.0,0.0,0.0,0.0,0.0,0.0,0.0,8.26288713865,0.534715801895,-5.19855507828,-1.0,0.0,0.0,0.0,0.0,0.0,0.0,0.0,0.0
1598621626384480855,4453,1598621626384098008,xsense,-0.858825170489,0.169509411262,-0.468531164885,-0.119014425846,-1.0,0.0,0.0,0.0,0.0,0.0,0.0,0.0,0.0,0.0270085103437,-0.904086515172,0.0366959801637,-1.0,0.0,0.0,0.0,0.0,0.0,0.0,0.0,0.0,8.14749484628,0.445492669343,-5.36299538232,-1.0,0.0,0.0,0.0,0.0,0.0,0.0,0.0,0.0
1598621626385129122,4454,1598621626384753590,xsense,-0.862820914871,0.170766744911,-0.461129883443,-0.117209292673,-1.0,0.0,0.0,0.0,0.0,0.0,0.0,0.0,0.0,0.0196872503403,-0.867372642765,0.0369179269293,-1.0,0.0,0.0,0.0,0.0,0.0,0.0,0.0,0.0,8.25248305063,0.436271206599,-5.30978138196,-1.0,0.0,0.0,0.0,0.0,0.0,0.0,0.0,0.0
1598621626432436982,4455,1598621626431973406,xsense,-0.864907142255,0.171378706054,-0.457217961795,-0.116261385676,-1.0,0.0,0.0,0.0,0.0,0.0,0.0,0.0,0.0,0.0239139569335,-0.913178119388,0.0302419252422,-1.0,0.0,0.0,0.0,0.0,0.0,0.0,0.0,0.0,7.96508331397,0.39010037074,-5.29688480978,-1.0,0.0,0.0,0.0,0.0,0.0,0.0,0.0,0.0
1598621626433287283,4456,1598621626432902232,xsense,-0.866995284838,0.17198237427,-0.453259572165,-0.115312615313,-1.0,0.0,0.0,0.0,0.0,0.0,0.0,0.0,0.0,0.0232666752956,-0.921180050945,0.0277441755265,-1.0,0.0,0.0,0.0,0.0,0.0,0.0,0.0,0.0,8.30649982592,0.389481007795,-5.42169949751,-1.0,0.0,0.0,0.0,0.0,0.0,0.0,0.0,0.0
1598621626435919635,4457,1598621626435561077,xsense,-0.869027550012,0.172591313652,-0.449354197555,-0.114386017116,-1.0,0.0,0.0,0.0,0.0,0.0,0.0,0.0,0.0,0.0194822109621,-0.906307682281,0.0297885582884,-1.0,0.0,0.0,0.0,0.0,0.0,0.0,0.0,0.0,8.05095531546,0.482230818707,-5.69186050501,-1.0,0.0,0.0,0.0,0.0,0.0,0.0,0.0,0.0
1598621626436651825,4458,1598621626436164498,xsense,-0.871030593789,0.173229613414,-0.445463484933,-0.113399688321,-1.0,0.0,0.0,0.0,0.0,0.0,0.0,0.0,0.0,0.0270595351091,-0.903839643578,0.041608063059,-1.0,0.0,0.0,0.0,0.0,0.0,0.0,0.0,0.0,8.03992292279,0.54460459389,-5.83700353748,-1.0,0.0,0.0,0.0,0.0,0.0,0.0,0.0,0.0
1598621626437044844,4459,1598621626436684769,xsense,-0.872947035101,0.173882542657,-0.441698684738,-0.112385974074,-1.0,0.0,0.0,0.0,0.0,0.0,0.0,0.0,0.0,0.0329292277745,-0.875474688453,0.0524517019275,-1.0,0.0,0.0,0.0,0.0,0.0,0.0,0.0,0.0,8.13475193347,0.481251886173,-5.79866837435,-1.0,0.0,0.0,0.0,0.0,0.0,0.0,0.0,0.0
1598621626472210824,4460,1598621626472066692,xsense,-0.874831413951,0.174531017763,-0.437958643286,-0.111360440796,-1.0,0.0,0.0,0.0,0.0,0.0,0.0,0.0,0.0,0.0355224057591,-0.86862543629,0.0543905627346,-1.0,0.0,0.0,0.0,0.0,0.0,0.0,0.0,0.0,7.78660546458,0.352608360274,-5.798845511,-1.0,0.0,0.0,0.0,0.0,0.0,0.0,0.0,0.0
1598621626472844277,4461,1598621626472652196,xsense,-0.876733052421,0.1751418838,-0.434161397122,-0.110310274138,-1.0,0.0,0.0,0.0,0.0,0.0,0.0,0.0,0.0,0.0415188378884,-0.880183791733,0.0480874038677,-1.0,0.0,0.0,0.0,0.0,0.0,0.0,0.0,0.0,7.93764732662,0.405917238098,-5.81996024548,-1.0,0.0,0.0,0.0,0.0,0.0,0.0,0.0,0.0
1598621626473020991,4462,1598621626472865968,xsense,-0.878595824759,0.175742456147,-0.430387096071,-0.109320233076,-1.0,0.0,0.0,0.0,0.0,0.0,0.0,0.0,0.0,0.0318115255484,-0.870436986066,0.0429331797413,-1.0,0.0,0.0,0.0,0.0,0.0,0.0,0.0,0.0,7.8988672572,0.243313082377,-5.97557006534,-1.0,0.0,0.0,0.0,0.0,0.0,0.0,0.0,0.0
1598621626474800402,4463,1598621626474666302,xsense,-0.880437923593,0.176301501609,-0.426599117638,-0.108443699957,-1.0,0.0,0.0,0.0,0.0,0.0,0.0,0.0,0.0,0.0145092990131,-0.866196982093,0.0262902606022,-1.0,0.0,0.0,0.0,0.0,0.0,0.0,0.0,0.0,7.50639447369,0.317756600227,-5.92123969851,-1.0,0.0,0.0,0.0,0.0,0.0,0.0,0.0,0.0
1598621626513116330,4464,1598621626512998452,xsense,-0.88234474918,0.176806487474,-0.422662964548,-0.107532450824,-1.0,0.0,0.0,0.0,0.0,0.0,0.0,0.0,0.0,0.0214123299994,-0.897829330613,0.0142398842105,-1.0,0.0,0.0,0.0,0.0,0.0,0.0,0.0,0.0,7.71561440042,0.318307626288,-6.02271438652,-1.0,0.0,0.0,0.0,0.0,0.0,0.0,0.0,0.0
1598621626513445506,4465,1598621626513255345,xsense,-0.884198497584,0.177300789429,-0.418784770786,-0.106661908359,-1.0,0.0,0.0,0.0,0.0,0.0,0.0,0.0,0.0,0.0160363776797,-0.881442910845,0.0120372574891,-1.0,0.0,0.0,0.0,0.0,0.0,0.0,0.0,0.0,7.90606346617,0.409974036968,-6.19216433561,-1.0,0.0,0.0,0.0,0.0,0.0,0.0,0.0,0.0
1598621626513743363,4466,1598621626513614896,xsense,-0.886000775714,0.177828999804,-0.414956757641,-0.105784505253,-1.0,0.0,0.0,0.0,0.0,0.0,0.0,0.0,0.0,0.0150945916412,-0.869226772544,0.0215034622538,-1.0,0.0,0.0,0.0,0.0,0.0,0.0,0.0,0.0,7.43653800738,0.442171967194,-6.28482922678,-1.0,0.0,0.0,0.0,0.0,0.0,0.0,0.0,0.0
1598621626513871466,4467,1598621626513740460,xsense,-0.887806008266,0.17834719385,-0.411096931507,-0.104843135386,-1.0,0.0,0.0,0.0,0.0,0.0,0.0,0.0,0.0,0.0261903674224,-0.877189295718,0.0242562904279,-1.0,0.0,0.0,0.0,0.0,0.0,0.0,0.0,0.0,7.62010333042,0.499610972409,-6.31228584132,-1.0,0.0,0.0,0.0,0.0,0.0,0.0,0.0,0.0
1598621626554239388,4468,1598621626553756772,xsense,-0.889548124032,0.178873549782,-0.407312616688,-0.103946238544,-1.0,0.0,0.0,0.0,0.0,0.0,0.0,0.0,0.0,0.0189940678565,-0.857159747215,0.0258865243002,-1.0,0.0,0.0,0.0,0.0,0.0,0.0,0.0,0.0,7.65638410535,0.351740731847,-6.37674775179,-1.0,0.0,0.0,0.0,0.0,0.0,0.0,0.0,0.0
1598621626554866989,4469,1598621626554514149,xsense,-0.89125641236,0.179378396793,-0.403562090114,-0.103068121229,-1.0,0.0,0.0,0.0,0.0,0.0,0.0,0.0,0.0,0.01791071769,-0.847297196539,0.0224404360951,-1.0,0.0,0.0,0.0,0.0,0.0,0.0,0.0,0.0,7.32582779039,0.339565453648,-6.44679009858,-1.0,0.0,0.0,0.0,0.0,0.0,0.0,0.0,0.0
1598621626557323535,4470,1598621626556979479,xsense,-0.89296042953,0.179872632278,-0.39978009965,-0.102192853839,-1.0,0.0,0.0,0.0,0.0,0.0,0.0,0.0,0.0,0.0170423381941,-0.852216551105,0.0198257351915,-1.0,0.0,0.0,0.0,0.0,0.0,0.0,0.0,0.0,7.3898550291,0.391285761768,-6.49601326519,-1.0,0.0,0.0,0.0,0.0,0.0,0.0,0.0,0.0
1598621626557773300,4471,1598621626557536774,xsense,-0.894631088387,0.180361649275,-0.39603224599,-0.101308199561,-1.0,0.0,0.0,0.0,0.0,0.0,0.0,0.0,0.0,0.0196805973415,-0.84369144849,0.0215396862292,-1.0,0.0,0.0,0.0,0.0,0.0,0.0,0.0,0.0,7.45370429869,0.442936982895,-6.54667794228,-1.0,0.0,0.0,0.0,0.0,0.0,0.0,0.0,0.0
1598621626602890102,4472,1598621626602415516,xsense,-0.896249149062,0.180855442221,-0.392355595453,-0.100428375181,-1.0,0.0,0.0,0.0,0.0,0.0,0.0,0.0,0.0,0.019942531977,-0.826699919397,0.02535407617,-1.0,0.0,0.0,0.0,0.0,0.0,0.0,0.0,0.0,7.27938853662,0.377846532474,-6.68824057658,-1.0,0.0,0.0,0.0,0.0,0.0,0.0,0.0,0.0
1598621626603720196,4473,1598621626603318789,xsense,-0.897834786225,0.18135704636,-0.388698086497,-0.0995796963921,-1.0,0.0,0.0,0.0,0.0,0.0,0.0,0.0,0.0,0.0137867870675,-0.819762626217,0.0258676639006,-1.0,0.0,0.0,0.0,0.0,0.0,0.0,0.0,0.0,7.15517024127,0.340672554962,-6.81282697767,-1.0,0.0,0.0,0.0,0.0,0.0,0.0,0.0,0.0
1598621626606905820,4474,1598621626606481393,xsense,-0.899377468781,0.181872039009,-0.385094912046,-0.0987149370227,-1.0,0.0,0.0,0.0,0.0,0.0,0.0,0.0,0.0,0.0167498807093,-0.807508602817,0.0321618613328,-1.0,0.0,0.0,0.0,0.0,0.0,0.0,0.0,0.0,7.21970754972,0.395705366211,-6.8277076637,-1.0,0.0,0.0,0.0,0.0,0.0,0.0,0.0,0.0
1598621626607489729,4475,1598621626607231821,xsense,-0.900856229232,0.182363324781,-0.381614918509,-0.0978351981685,-1.0,0.0,0.0,0.0,0.0,0.0,0.0,0.0,0.0,0.0244874532387,-0.780532943437,0.0338089284916,-1.0,0.0,0.0,0.0,0.0,0.0,0.0,0.0,0.0,7.28853172332,0.405404277371,-6.80298709512,-1.0,0.0,0.0,0.0,0.0,0.0,0.0,0.0,0.0
1598621626608087271,4476,1598621626607737988,xsense,-0.9023113036,0.182831950322,-0.378148296646,-0.0970085309692,-1.0,0.0,0.0,0.0,0.0,0.0,0.0,0.0,0.0,0.0166805627825,-0.773908678691,0.0268005764801,-1.0,0.0,0.0,0.0,0.0,0.0,0.0,0.0,0.0,6.98225210914,0.302517691828,-6.78703175178,-1.0,0.0,0.0,0.0,0.0,0.0,0.0,0.0,0.0
1598621626643431259,4477,1598621626643230370,xsense,-0.903774231384,0.183304291334,-0.374632631919,-0.096135667508,-1.0,0.0,0.0,0.0,0.0,0.0,0.0,0.0,0.0,0.0230926334036,-0.785115218484,0.029725879799,-1.0,0.0,0.0,0.0,0.0,0.0,0.0,0.0,0.0,7.06384403969,0.348090636183,-6.88752609175,-1.0,0.0,0.0,0.0,0.0,0.0,0.0,0.0,0.0
1598621626644902119,4478,1598621626644685283,xsense,-0.906555538541,0.184194422194,-0.367837132741,-0.0944738807773,-1.0,0.0,0.0,0.0,0.0,0.0,0.0,0.0,0.0,0.0204860488431,-0.756327566633,0.0265683231679,-1.0,0.0,0.0,0.0,0.0,0.0,0.0,0.0,0.0,6.98168947555,0.389509603752,-6.99092090058,-1.0,0.0,0.0,0.0,0.0,0.0,0.0,0.0,0.0
1598621626645160318,4479,1598621626644957827,xsense,-0.9079290272,0.18462101439,-0.364434965278,-0.0936328932381,-1.0,0.0,0.0,0.0,0.0,0.0,0.0,0.0,0.0,0.0231864761243,-0.755899432252,0.0245070291049,-1.0,0.0,0.0,0.0,0.0,0.0,0.0,0.0,0.0,6.74989624298,0.307135382532,-7.05074823989,-1.0,0.0,0.0,0.0,0.0,0.0,0.0,0.0,0.0
1598621626693187300,4480,1598621626692777920,xsense,-0.90927300413,0.185056037964,-0.361054810885,-0.0928239748675,-1.0,0.0,0.0,0.0,0.0,0.0,0.0,0.0,0.0,0.0170103581961,-0.7487085933,0.0252057101661,-1.0,0.0,0.0,0.0,0.0,0.0,0.0,0.0,0.0,6.98886509586,0.286613169132,-7.13855391297,-1.0,0.0,0.0,0.0,0.0,0.0,0.0,0.0,0.0
1598621626694051919,4481,1598621626693688354,xsense,-0.910559326553,0.185458683628,-0.357794199779,-0.0920331467382,-1.0,0.0,0.0,0.0,0.0,0.0,0.0,0.0,0.0,0.0194086526561,-0.721535582102,0.0223650687789,-1.0,0.0,0.0,0.0,0.0,0.0,0.0,0.0,0.0,6.7940184151,0.324138914715,-7.2176499825,-1.0,0.0,0.0,0.0,0.0,0.0,0.0,0.0,0.0
1598621626696615556,4482,1598621626696221970,xsense,-0.911854696925,0.185845109459,-0.354474262018,-0.0912721455437,-1.0,0.0,0.0,0.0,0.0,0.0,0.0,0.0,0.0,0.0131075388553,-0.73158172247,0.0158486474055,-1.0,0.0,0.0,0.0,0.0,0.0,0.0,0.0,0.0,6.4090309169,0.35142421633,-7.10109090017,-1.0,0.0,0.0,0.0,0.0,0.0,0.0,0.0,0.0
1598621626696976859,4483,1598621626696734979,xsense,-0.913206030574,0.186231502866,-0.350986955982,-0.0904473868849,-1.0,0.0,0.0,0.0,0.0,0.0,0.0,0.0,0.0,0.0195338482404,-0.768461700242,0.0152291887458,-1.0,0.0,0.0,0.0,0.0,0.0,0.0,0.0,0.0,6.6201195274,0.314239275329,-7.11820932601,-1.0,0.0,0.0,0.0,0.0,0.0,0.0,0.0,0.0
1598621626697486332,4484,1598621626697153827,xsense,-0.914520262193,0.186618192541,-0.347540656003,-0.0896762659625,-1.0,0.0,0.0,0.0,0.0,0.0,0.0,0.0,0.0,0.0105769139959,-0.756355413315,0.0136400675606,-1.0,0.0,0.0,0.0,0.0,0.0,0.0,0.0,0.0,6.79776727361,0.335635694652,-7.26534292984,-1.0,0.0,0.0,0.0,0.0,0.0,0.0,0.0,0.0
1598621626733977242,4485,1598621626733512222,xsense,-0.91579233494,0.186990548258,-0.344165399063,-0.0889331896116,-1.0,0.0,0.0,0.0,0.0,0.0,0.0,0.0,0.0,0.00833528167094,-0.739147175001,0.0119162160383,-1.0,0.0,0.0,0.0,0.0,0.0,0.0,0.0,0.0,6.40320314609,0.335070575064,-7.40040490087,-1.0,0.0,0.0,0.0,0.0,0.0,0.0,0.0,0.0
1598621626735083563,4486,1598621626734728762,xsense,-0.917099850363,0.187389811151,-0.34065176339,-0.0881436284742,-1.0,0.0,0.0,0.0,0.0,0.0,0.0,0.0,0.0,0.0104565114461,-0.769129150787,0.0162578939654,-1.0,0.0,0.0,0.0,0.0,0.0,0.0,0.0,0.0,6.21535467303,0.309183862209,-7.39492006988,-1.0,0.0,0.0,0.0,0.0,0.0,0.0,0.0,0.0
1598621626735727429,4487,1598621626735427483,xsense,-0.918392329765,0.187790625345,-0.337136023706,-0.0873470731092,-1.0,0.0,0.0,0.0,0.0,0.0,0.0,0.0,0.0,0.0112836583875,-0.76879503969,0.0175492074308,-1.0,0.0,0.0,0.0,0.0,0.0,0.0,0.0,0.0,6.66554970709,0.432419922879,-7.39905963997,-1.0,0.0,0.0,0.0,0.0,0.0,0.0,0.0,0.0
1598621626736180656,4488,1598621626735873252,xsense,-0.919627042679,0.188209307095,-0.333728570423,-0.086536699609,-1.0,0.0,0.0,0.0,0.0,0.0,0.0,0.0,0.0,0.0156810148061,-0.745826175789,0.025820305002,-1.0,0.0,0.0,0.0,0.0,0.0,0.0,0.0,0.0,6.40183264446,0.371668153448,-7.4496165092,-1.0,0.0,0.0,0.0,0.0,0.0,0.0,0.0,0.0
1598621626773955884,4489,1598621626773655164,xsense,-0.920897526646,0.18862093477,-0.330194212765,-0.085683547075,-1.0,0.0,0.0,0.0,0.0,0.0,0.0,0.0,0.0,0.0198599906415,-0.773041020427,0.0238321414569,-1.0,0.0,0.0,0.0,0.0,0.0,0.0,0.0,0.0,5.92126565777,0.233423742398,-7.43928559654,-1.0,0.0,0.0,0.0,0.0,0.0,0.0,0.0,0.0
1598621626776603369,4490,1598621626776214009,xsense,-0.922202436763,0.188998145421,-0.326534439235,-0.0848388274892,-1.0,0.0,0.0,0.0,0.0,0.0,0.0,0.0,0.0,0.016440610256,-0.797507834615,0.0134915815205,-1.0,0.0,0.0,0.0,0.0,0.0,0.0,0.0,0.0,6.37947231219,0.249376181564,-7.5306669495,-1.0,0.0,0.0,0.0,0.0,0.0,0.0,0.0,0.0
1598621626777080337,4491,1598621626776811128,xsense,-0.923442306719,0.18935830712,-0.323003032547,-0.0840641341551,-1.0,0.0,0.0,0.0,0.0,0.0,0.0,0.0,0.0,0.0083785756169,-0.766644175998,0.0104219775629,-1.0,0.0,0.0,0.0,0.0,0.0,0.0,0.0,0.0,6.50530490373,0.314306517323,-7.72312970621,-1.0,0.0,0.0,0.0,0.0,0.0,0.0,0.0,0.0
1598621626777537869,4492,1598621626777231760,xsense,-0.924611374904,0.189693790382,-0.319620971662,-0.0833816872142,-1.0,0.0,0.0,0.0,0.0,0.0,0.0,0.0,0.0,-0.00259007439564,-0.730582758527,0.00508574566899,-1.0,0.0,0.0,0.0,0.0,0.0,0.0,0.0,0.0,5.96033634058,0.331366996835,-7.85102584106,-1.0,0.0,0.0,0.0,0.0,0.0,0.0,0.0,0.0
1598621626812971127,4493,1598621626812611299,xsense,-0.925781255764,0.190030815177,-0.316201710564,-0.0826670066937,-1.0,0.0,0.0,0.0,0.0,0.0,0.0,0.0,0.0,0.00186902809509,-0.738775523697,0.00677531220339,-1.0,0.0,0.0,0.0,0.0,0.0,0.0,0.0,0.0,6.03143849507,0.316069260959,-7.86241109166,-1.0,0.0,0.0,0.0,0.0,0.0,0.0,0.0,0.0
1598621626813481250,4494,1598621626813246865,xsense,-0.926873897803,0.190371243839,-0.312965548376,-0.0819520141323,-1.0,0.0,0.0,0.0,0.0,0.0,0.0,0.0,0.0,0.00739871616435,-0.700043889618,0.013392915351,-1.0,0.0,0.0,0.0,0.0,0.0,0.0,0.0,0.0,6.47208215439,0.392711677159,-7.86382303619,-1.0,0.0,0.0,0.0,0.0,0.0,0.0,0.0,0.0
1598621626815458986,4495,1598621626815158664,xsense,-0.927863324967,0.190698556819,-0.309999713425,-0.0812643112662,-1.0,0.0,0.0,0.0,0.0,0.0,0.0,0.0,0.0,0.0117556061656,-0.642220694264,0.0176182620871,-1.0,0.0,0.0,0.0,0.0,0.0,0.0,0.0,0.0,6.11921319258,0.425480604066,-7.90759208378,-1.0,0.0,0.0,0.0,0.0,0.0,0.0,0.0,0.0
1598621626815760872,4496,1598621626815583846,xsense,-0.92883680717,0.191060164067,-0.307034720438,-0.0805473761083,-1.0,0.0,0.0,0.0,0.0,0.0,0.0,0.0,0.0,0.0148330630571,-0.642744628124,0.0264123704061,-1.0,0.0,0.0,0.0,0.0,0.0,0.0,0.0,0.0,5.62290887805,0.382709346999,-7.89039361025,-1.0,0.0,0.0,0.0,0.0,0.0,0.0,0.0,0.0
1598621626863018496,4497,1598621626862468964,xsense,-0.929816573037,0.191434841086,-0.304031320301,-0.0797420742136,-1.0,0.0,0.0,0.0,0.0,0.0,0.0,0.0,0.0,0.0290774724505,-0.653868750109,0.033409760308,-1.0,0.0,0.0,0.0,0.0,0.0,0.0,0.0,0.0,6.05005404468,0.314169733315,-7.83851452768,-1.0,0.0,0.0,0.0,0.0,0.0,0.0,0.0,0.0
1598621626865703152,4498,1598621626865262353,xsense,-0.930743319026,0.191795823436,-0.301149649319,-0.0789944613042,-1.0,0.0,0.0,0.0,0.0,0.0,0.0,0.0,0.0,0.0229995112841,-0.625564175406,0.0313246134836,-1.0,0.0,0.0,0.0,0.0,0.0,0.0,0.0,0.0,6.07104156583,0.239267292232,-7.88361776581,-1.0,0.0,0.0,0.0,0.0,0.0,0.0,0.0,0.0
1598621626866207596,4499,1598621626865724730,xsense,-0.93167077494,0.192142270202,-0.298236841308,-0.0782668615077,-1.0,0.0,0.0,0.0,0.0,0.0,0.0,0.0,0.0,0.0189628504144,-0.630400669202,0.0268937775943,-1.0,0.0,0.0,0.0,0.0,0.0,0.0,0.0,0.0,5.4988232758,0.262873638573,-7.88329340331,-1.0,0.0,0.0,0.0,0.0,0.0,0.0,0.0,0.0
1598621626866541167,4500,1598621626866283188,xsense,-0.932642436587,0.192474980095,-0.29516406865,-0.0775218684766,-1.0,0.0,0.0,0.0,0.0,0.0,0.0,0.0,0.0,0.0175714908997,-0.663302912599,0.021169337997,-1.0,0.0,0.0,0.0,0.0,0.0,0.0,0.0,0.0,5.51511844003,0.261897065246,-7.93393282028,-1.0,0.0,0.0,0.0,0.0,0.0,0.0,0.0,0.0
1598621626867037398,4501,1598621626866806727,xsense,-0.933622591966,0.192767296346,-0.292052412114,-0.0767789932783,-1.0,0.0,0.0,0.0,0.0,0.0,0.0,0.0,0.0,0.0181898503864,-0.670353777057,0.0125833409111,-1.0,0.0,0.0,0.0,0.0,0.0,0.0,0.0,0.0,5.90277975219,0.256320463855,-7.9821238906,-1.0,0.0,0.0,0.0,0.0,0.0,0.0,0.0,0.0
1598621626903466655,4502,1598621626903210770,xsense,-0.934543846163,0.193100058537,-0.289056652034,-0.0760685145557,-1.0,0.0,0.0,0.0,0.0,0.0,0.0,0.0,0.0,0.0133479028205,-0.644640294726,0.0222903962845,-1.0,0.0,0.0,0.0,0.0,0.0,0.0,0.0,0.0,5.68600083138,0.359771677218,-8.10177848836,-1.0,0.0,0.0,0.0,0.0,0.0,0.0,0.0,0.0
