%time,field.header.seq,field.header.stamp,field.header.frame_id,field.orientation.x,field.orientation.y,field.orientation.z,field.orientation.w,field.orientation_covariance0,field.orientation_covariance1,field.orientation_covariance2,field.orientation_covariance3,field.orientation_covariance4,field.orientation_covariance5,field.orientation_covariance6,field.orientation_covariance7,field.orientation_covariance8,field.angular_velocity.x,field.angular_velocity.y,field.angular_velocity.z,field.angular_velocity_covariance0,field.angular_velocity_covariance1,field.angular_velocity_covariance2,field.angular_velocity_covariance3,field.angular_velocity_covariance4,field.angular_velocity_covariance5,field.angular_velocity_covariance6,field.angular_velocity_covariance7,field.angular_velocity_covariance8,field.linear_acceleration.x,field.linear_acceleration.y,field.linear_acceleration.z,field.linear_acceleration_covariance0,field.linear_acceleration_covariance1,field.linear_acceleration_covariance2,field.linear_acceleration_covariance3,field.linear_acceleration_covariance4,field.linear_acceleration_covariance5,field.linear_acceleration_covariance6,field.linear_acceleration_covariance7,field.linear_acceleration_covariance8
1596620936826045781,1825,1596620936825599417,xsense,-0.0126816029089,0.0030520941836,0.561654238561,0.827269229438,-1.0,0.0,0.0,0.0,0.0,0.0,0.0,0.0,0.0,0.00154482014765,0.0030876989746,-0.00143741941044,-1.0,0.0,0.0,0.0,0.0,0.0,0.0,0.0,0.0,-0.202286710937,-0.195421647948,9.82793464664,-1.0,0.0,0.0,0.0,0.0,0.0,0.0,0.0,0.0
1596620936829031067,1826,1596620936828415628,xsense,-0.012685966487,0.00304014133761,0.561654791063,0.82726883144,-1.0,0.0,0.0,0.0,0.0,0.0,0.0,0.0,0.0,-0.00302890095009,0.00302952690788,-0.00162218370051,-1.0,0.0,0.0,0.0,0.0,0.0,0.0,0.0,0.0,-0.180870959008,-0.170938379364,9.8546386207,-1.0,0.0,0.0,0.0,0.0,0.0,0.0,0.0,0.0
1596620936845468341,1827,1596620936845013457,xsense,-0.0126886836974,0.0030396189607,0.561654145632,0.827269229887,-1.0,0.0,0.0,0.0,0.0,0.0,0.0,0.0,0.0,-0.00152483425502,0.0045758593866,-0.00154769910953,-1.0,0.0,0.0,0.0,0.0,0.0,0.0,0.0,0.0,-0.203610683099,-0.171322873597,9.82832661637,-1.0,0.0,0.0,0.0,0.0,0.0,0.0,0.0,0.0
1596620936847179278,1828,1596620936846585715,xsense,-0.0126749065493,0.00304105180125,0.56166230515,0.827263896059,-1.0,0.0,0.0,0.0,0.0,0.0,0.0,0.0,0.0,0.00148353635908,0.00307326754199,8.74170552557e-05,-1.0,0.0,0.0,0.0,0.0,0.0,0.0,0.0,0.0,-0.202673458777,-0.220129942182,9.82749527446,-1.0,0.0,0.0,0.0,0.0,0.0,0.0,0.0,0.0
1596620936866835873,1829,1596620936866429772,xsense,-0.0126899388402,0.00303193359827,0.56165488951,0.827268733798,-1.0,0.0,0.0,0.0,0.0,0.0,0.0,0.0,0.0,-0.00451263941234,0.0045515158572,-0.00319580800374,-1.0,0.0,0.0,0.0,0.0,0.0,0.0,0.0,0.0,-0.179374673607,-0.195259186172,9.8298684543,-1.0,0.0,0.0,0.0,0.0,0.0,0.0,0.0,0.0
1596620936869141693,1830,1596620936868596959,xsense,-0.0126721554302,0.00302711847583,0.561647638669,0.827273946772,-1.0,0.0,0.0,0.0,0.0,0.0,0.0,0.0,0.0,0.00162671772303,0.00157540575276,-0.00297480290205,-1.0,0.0,0.0,0.0,0.0,0.0,0.0,0.0,0.0,-0.177708375626,-0.194942518513,9.8055294132,-1.0,0.0,0.0,0.0,0.0,0.0,0.0,0.0,0.0
1596620936885957236,1831,1596620936885615889,xsense,-0.0126838087105,0.00303897803468,0.561653215337,0.8272699386,-1.0,0.0,0.0,0.0,0.0,0.0,0.0,0.0,0.0,-0.00162739366412,0.00761519086126,2.75234403463e-06,-1.0,0.0,0.0,0.0,0.0,0.0,0.0,0.0,0.0,-0.177498598983,-0.219346916462,9.80510883607,-1.0,0.0,0.0,0.0,0.0,0.0,0.0,0.0,0.0
1596620936887755117,1832,1596620936887195057,xsense,-0.0126783101665,0.00302544039461,0.561645533584,0.827275287777,-1.0,0.0,0.0,0.0,0.0,0.0,0.0,0.0,0.0,-0.00142230109966,0.00153651926852,-0.00309828041435,-1.0,0.0,0.0,0.0,0.0,0.0,0.0,0.0,0.0,-0.207512922932,-0.172247150845,9.85260877111,-1.0,0.0,0.0,0.0,0.0,0.0,0.0,0.0,0.0
1596620936905903009,1833,1596620936905533170,xsense,-0.0126812181636,0.00302478157137,0.561651196501,0.827271400975,-1.0,0.0,0.0,0.0,0.0,0.0,0.0,0.0,0.0,-0.00158633465848,0.00456131494849,-2.3041064418e-05,-1.0,0.0,0.0,0.0,0.0,0.0,0.0,0.0,0.0,-0.179555919873,-0.17084607963,9.805914806,-1.0,0.0,0.0,0.0,0.0,0.0,0.0,0.0,0.0
1596620936908597012,1834,1596620936908142155,xsense,-0.0126758739465,0.00303894884333,0.561653278326,0.827270017561,-1.0,0.0,0.0,0.0,0.0,0.0,0.0,0.0,0.0,0.0015036618068,0.00614176021763,-0.00141117450979,-1.0,0.0,0.0,0.0,0.0,0.0,0.0,0.0,0.0,-0.185317959019,-0.19664780976,9.87848313346,-1.0,0.0,0.0,0.0,0.0,0.0,0.0,0.0,0.0
1596620936927277573,1835,1596620936926516166,xsense,-0.0126677755447,0.00303666940587,0.561646598332,0.827274685146,-1.0,0.0,0.0,0.0,0.0,0.0,0.0,0.0,0.0,8.1811285983e-05,0.00308294334429,-0.00302357522413,-1.0,0.0,0.0,0.0,0.0,0.0,0.0,0.0,0.0,-0.232454042091,-0.197355866582,9.85018923362,-1.0,0.0,0.0,0.0,0.0,0.0,0.0,0.0,0.0
1596620936928993665,1836,1596620936928761554,xsense,-0.0126879581157,0.00303325812191,0.561652800371,0.827270177693,-1.0,0.0,0.0,0.0,0.0,0.0,0.0,0.0,0.0,-0.00465618431233,0.00604920190217,-0.000134027713858,-1.0,0.0,0.0,0.0,0.0,0.0,0.0,0.0,0.0,-0.182281448214,-0.195871811599,9.82980279421,-1.0,0.0,0.0,0.0,0.0,0.0,0.0,0.0,0.0
1596620936931906644,1837,1596620936931385685,xsense,-0.0126696153943,0.00302881342777,0.561659012637,0.827266257416,-1.0,0.0,0.0,0.0,0.0,0.0,0.0,0.0,0.0,0.00150393102486,0.00154644936901,7.48865458617e-05,-1.0,0.0,0.0,0.0,0.0,0.0,0.0,0.0,0.0,-0.183314156735,-0.171625148014,9.83020650368,-1.0,0.0,0.0,0.0,0.0,0.0,0.0,0.0,0.0
1596620936947903908,1838,1596620936947327557,xsense,-0.0126731005107,0.00302798646869,0.561664807794,0.827262272503,-1.0,0.0,0.0,0.0,0.0,0.0,0.0,0.0,0.0,-0.00158643982936,0.00456130025752,-2.31455028804e-05,-1.0,0.0,0.0,0.0,0.0,0.0,0.0,0.0,0.0,-0.20728050137,-0.19665461239,9.82780599723,-1.0,0.0,0.0,0.0,0.0,0.0,0.0,0.0,0.0
1596620936949270310,1839,1596620936948837061,xsense,-0.012665192431,0.00302557148728,0.561664436686,0.827262654409,-1.0,0.0,0.0,0.0,0.0,0.0,0.0,0.0,0.0,2.03677024905e-05,0.00306845166275,-0.00149880392419,-1.0,0.0,0.0,0.0,0.0,0.0,0.0,0.0,0.0,-0.183328450655,-0.196109168587,9.82977858854,-1.0,0.0,0.0,0.0,0.0,0.0,0.0,0.0,0.0
1596620936975652971,1840,1596620936975255010,xsense,-0.012678919589,0.00302667287341,0.56166459449,0.827262332967,-1.0,0.0,0.0,0.0,0.0,0.0,0.0,0.0,0.0,-0.00307002435351,0.00608328879079,-0.00159693317874,-1.0,0.0,0.0,0.0,0.0,0.0,0.0,0.0,0.0,-0.210732202565,-0.172950937418,9.85252811398,-1.0,0.0,0.0,0.0,0.0,0.0,0.0,0.0,0.0
1596620936977258580,1841,1596620936976697532,xsense,-0.012681636979,0.00302615070335,0.561663948404,0.827262731881,-1.0,0.0,0.0,0.0,0.0,0.0,0.0,0.0,0.0,-0.00152481952135,0.00457588962111,-0.00154784722716,-1.0,0.0,0.0,0.0,0.0,0.0,0.0,0.0,0.0,-0.159970753944,-0.195865959688,9.83173735869,-1.0,0.0,0.0,0.0,0.0,0.0,0.0,0.0,0.0
1596620936995186785,1842,1596620936994906550,xsense,-0.0126797934483,0.00301840099894,0.561666126121,0.827261309903,-1.0,0.0,0.0,0.0,0.0,0.0,0.0,0.0,0.0,-0.00150415524446,0.00304895191616,-0.00156082725394,-1.0,0.0,0.0,0.0,0.0,0.0,0.0,0.0,0.0,-0.185328559368,-0.172240773173,9.83015796532,-1.0,0.0,0.0,0.0,0.0,0.0,0.0,0.0,0.0
1596620936996966158,1843,1596620936996290096,xsense,-0.0126718850316,0.00301598611399,0.561665755528,0.8272616915,-1.0,0.0,0.0,0.0,0.0,0.0,0.0,0.0,0.0,2.03954905571e-05,0.00306851015771,-0.0014987129517,-1.0,0.0,0.0,0.0,0.0,0.0,0.0,0.0,0.0,-0.184965362209,-0.196718111604,9.82973575565,-1.0,0.0,0.0,0.0,0.0,0.0,0.0,0.0,0.0
1596620937016352284,1844,1596620937015521113,xsense,-0.0126586644698,0.00301709795495,0.561671521875,0.827257974787,-1.0,0.0,0.0,0.0,0.0,0.0,0.0,0.0,0.0,0.00148317124763,0.0030734546776,8.81157511652e-05,-1.0,0.0,0.0,0.0,0.0,0.0,0.0,0.0,0.0,-0.233915914104,-0.19789662569,9.82575773364,-1.0,0.0,0.0,0.0,0.0,0.0,0.0,0.0,0.0
1596620937017903882,1845,1596620937017347643,xsense,-0.0126591201352,0.00302747519607,0.561658448812,0.827266805782,-1.0,0.0,0.0,0.0,0.0,0.0,0.0,0.0,0.0,0.000102634423789,0.00615162373976,-0.00452216480887,-1.0,0.0,0.0,0.0,0.0,0.0,0.0,0.0,0.0,-0.15941358831,-0.195478361682,9.80738312894,-1.0,0.0,0.0,0.0,0.0,0.0,0.0,0.0,0.0
1596620937035992192,1846,1596620937035456404,xsense,-0.0126522313978,0.00302418101942,0.561670594661,0.827258676873,-1.0,0.0,0.0,0.0,0.0,0.0,0.0,0.0,0.0,-0.000103292755588,0.00303927697351,0.00155063790242,-1.0,0.0,0.0,0.0,0.0,0.0,0.0,0.0,0.0,-0.186163685516,-0.196574484752,9.82971600713,-1.0,0.0,0.0,0.0,0.0,0.0,0.0,0.0,0.0
1596620937037969924,1847,1596620937037437707,xsense,-0.0126653824368,0.00302568801841,0.561663363811,0.827263379494,-1.0,0.0,0.0,0.0,0.0,0.0,0.0,0.0,0.0,-0.00300821131249,0.00609784387266,-0.00312194051372,-1.0,0.0,0.0,0.0,0.0,0.0,0.0,0.0,0.0,-0.209619938733,-0.172486323359,9.80380005842,-1.0,0.0,0.0,0.0,0.0,0.0,0.0,0.0,0.0
1596620937056015379,1848,1596620937055529163,xsense,-0.0126601060865,0.00301188317362,0.561670189732,0.827258876193,-1.0,0.0,0.0,0.0,0.0,0.0,0.0,0.0,0.0,-0.00154528178859,0.001507336772,-4.92822705526e-05,-1.0,0.0,0.0,0.0,0.0,0.0,0.0,0.0,0.0,-0.188961383846,-0.197423865572,9.85402202281,-1.0,0.0,0.0,0.0,0.0,0.0,0.0,0.0,0.0
1596620937057492676,1849,1596620937057064731,xsense,-0.0126628235152,0.00301136021129,0.561669543238,0.827259275445,-1.0,0.0,0.0,0.0,0.0,0.0,0.0,0.0,0.0,-0.00152483441679,0.00457588907231,-0.00154795209024,-1.0,0.0,0.0,0.0,0.0,0.0,0.0,0.0,0.0,-0.21160386785,-0.197735155894,9.8276921794,-1.0,0.0,0.0,0.0,0.0,0.0,0.0,0.0,0.0
1596620937076822622,1850,1596620937076425912,xsense,-0.0126599263848,0.00301433791362,0.561676278425,0.827254736031,-1.0,0.0,0.0,0.0,0.0,0.0,0.0,0.0,0.0,-6.22524983322e-05,0.00458085130948,3.90559660896e-05,-1.0,0.0,0.0,0.0,0.0,0.0,0.0,0.0,0.0,-0.186409876015,-0.17231711262,9.80576116692,-1.0,0.0,0.0,0.0,0.0,0.0,0.0,0.0,0.0
1596620937079246938,1851,1596620937078770804,xsense,-0.0126605735897,0.0030245781737,0.561669514609,0.827259281098,-1.0,0.0,0.0,0.0,0.0,0.0,0.0,0.0,0.0,4.09832336415e-05,0.0061371396368,-0.00299729261826,-1.0,0.0,0.0,0.0,0.0,0.0,0.0,0.0,0.0,-0.188251692601,-0.197191265359,9.82966388815,-1.0,0.0,0.0,0.0,0.0,0.0,0.0,0.0,0.0
1596620937080289485,1852,1596620937080022971,xsense,-0.0126718210937,0.00300819184806,0.561675657381,0.827254997952,-1.0,0.0,0.0,0.0,0.0,0.0,0.0,0.0,0.0,-0.00461516573489,0.00299497447764,-0.000161189778309,-1.0,0.0,0.0,0.0,0.0,0.0,0.0,0.0,0.0,-0.212357497317,-0.222448523671,9.82723857727,-1.0,0.0,0.0,0.0,0.0,0.0,0.0,0.0,0.0
1596620937097881271,1853,1596620937097562044,xsense,-0.0126405911216,0.00301275717984,0.561669723354,0.82725948808,-1.0,0.0,0.0,0.0,0.0,0.0,0.0,0.0,0.0,0.00467696328134,0.00161528978258,-0.00284901493642,-1.0,0.0,0.0,0.0,0.0,0.0,0.0,0.0,0.0,-0.188921018904,-0.197418860178,9.8296464779,-1.0,0.0,0.0,0.0,0.0,0.0,0.0,0.0,0.0
1596620937100274277,1854,1596620937099927829,xsense,-0.0126549075058,0.00301339665929,0.561679985985,0.82725229894,-1.0,0.0,0.0,0.0,0.0,0.0,0.0,0.0,0.0,-0.00319434313615,0.00605381700401,0.001451854552,-1.0,0.0,0.0,0.0,0.0,0.0,0.0,0.0,0.0,-0.189961304546,-0.172945853734,9.8300571537,-1.0,0.0,0.0,0.0,0.0,0.0,0.0,0.0,0.0
1596620937127573781,1855,1596620937126973178,xsense,-0.0126513730786,0.00301724020765,0.561679573372,0.827252619142,-1.0,0.0,0.0,0.0,0.0,0.0,0.0,0.0,0.0,-2.43069046511e-07,0.00459556107423,-0.00148556244031,-1.0,0.0,0.0,0.0,0.0,0.0,0.0,0.0,0.0,-0.213479186037,-0.222534326857,9.82721233157,-1.0,0.0,0.0,0.0,0.0,0.0,0.0,0.0,0.0
1596620937128644503,1856,1596620937127947355,xsense,-0.0126503660425,0.0030098611455,0.561678873721,0.827253136464,-1.0,0.0,0.0,0.0,0.0,0.0,0.0,0.0,0.0,-0.00150397762205,0.00304894192654,-0.00156112575035,-1.0,0.0,0.0,0.0,0.0,0.0,0.0,0.0,0.0,-0.188205178048,-0.197111272193,9.80529019908,-1.0,0.0,0.0,0.0,0.0,0.0,0.0,0.0,0.0
1596620937146321429,1857,1596620937145780812,xsense,-0.0126532763356,0.00300919876644,0.56168453505,0.827249250472,-1.0,0.0,0.0,0.0,0.0,0.0,0.0,0.0,0.0,-0.00158697019457,0.00456119851026,-2.34032621118e-05,-1.0,0.0,0.0,0.0,0.0,0.0,0.0,0.0,0.0,-0.215554312092,-0.173962213983,9.8280255597,-1.0,0.0,0.0,0.0,0.0,0.0,0.0,0.0,0.0
1596620937148744257,1858,1596620937148209216,xsense,-0.0126625528621,0.003003595798,0.561683371612,0.827249918841,-1.0,0.0,0.0,0.0,0.0,0.0,0.0,0.0,0.0,-0.00304928867228,0.00455624513027,-0.00161066187176,-1.0,0.0,0.0,0.0,0.0,0.0,0.0,0.0,0.0,-0.191677159427,-0.173562610411,9.83001297475,-1.0,0.0,0.0,0.0,0.0,0.0,0.0,0.0,0.0
1596620937166435434,1859,1596620937165987777,xsense,-0.012663199712,0.0030138368407,0.561676609021,0.827254463294,-1.0,0.0,0.0,0.0,0.0,0.0,0.0,0.0,0.0,4.11921682351e-05,0.00613732757462,-0.00299701791182,-1.0,0.0,0.0,0.0,0.0,0.0,0.0,0.0,0.0,-0.19418951771,-0.174186168919,9.8543282979,-1.0,0.0,0.0,0.0,0.0,0.0,0.0,0.0,0.0
1596620937168654393,1860,1596620937168299491,xsense,-0.0126740149502,0.00299805939907,0.561669351269,0.82725928271,-1.0,0.0,0.0,0.0,0.0,0.0,0.0,0.0,0.0,-0.00449069367064,0.00302428498626,-0.00321117718207,-1.0,0.0,0.0,0.0,0.0,0.0,0.0,0.0,0.0,-0.191976703148,-0.198340906822,9.82956871246,-1.0,0.0,0.0,0.0,0.0,0.0,0.0,0.0,0.0
1596620937186504006,1861,1596620937185938139,xsense,-0.0126644228858,0.00300613028862,0.561675483204,0.827255236998,-1.0,0.0,0.0,0.0,0.0,0.0,0.0,0.0,0.0,0.00146190229977,0.00460061940236,0.000102030656109,-1.0,0.0,0.0,0.0,0.0,0.0,0.0,0.0,0.0,-0.194341155347,-0.198965042134,9.85388639349,-1.0,0.0,0.0,0.0,0.0,0.0,0.0,0.0,0.0
1596620937189036585,1862,1596620937188525610,xsense,-0.0126786898258,0.00300670052066,0.561687377444,0.827246940518,-1.0,0.0,0.0,0.0,0.0,0.0,0.0,0.0,0.0,-0.00319490248007,0.00605362906617,0.00145162685098,-1.0,0.0,0.0,0.0,0.0,0.0,0.0,0.0,0.0,-0.192873539175,-0.198576427589,9.8295464014,-1.0,0.0,0.0,0.0,0.0,0.0,0.0,0.0,0.0
1596620937206956059,1863,1596620937206408472,xsense,-0.0126793363757,0.00301694225603,0.561680615487,0.827251484541,-1.0,0.0,0.0,0.0,0.0,0.0,0.0,0.0,0.0,4.13400849574e-05,0.00613744892634,-0.00299683311339,-1.0,0.0,0.0,0.0,0.0,0.0,0.0,0.0,0.0,-0.19546673612,-0.199205797871,9.85385926653,-1.0,0.0,0.0,0.0,0.0,0.0,0.0,0.0,0.0
1596620937208582288,1864,1596620937208072671,xsense,-0.0126776458342,0.00300909432124,0.561682975978,0.827249936322,-1.0,0.0,0.0,0.0,0.0,0.0,0.0,0.0,0.0,-0.00150385234627,0.00304898731086,-0.00156123525363,-1.0,0.0,0.0,0.0,0.0,0.0,0.0,0.0,0.0,-0.19192145283,-0.19833609793,9.80519346464,-1.0,0.0,0.0,0.0,0.0,0.0,0.0,0.0,0.0
1596620937226784110,1865,1596620937226008105,xsense,-0.0126845434659,0.00301496867215,0.561675978481,0.827254560289,-1.0,0.0,0.0,0.0,0.0,0.0,0.0,0.0,0.0,-0.00148318592718,0.00611773446714,-0.00305963207496,-1.0,0.0,0.0,0.0,0.0,0.0,0.0,0.0,0.0,-0.197030380028,-0.175032723298,9.85425690602,-1.0,0.0,0.0,0.0,0.0,0.0,0.0,0.0,0.0
1596620937228285655,1866,1596620937227849219,xsense,-0.0126877151542,0.00301375094265,0.561676194977,0.827254369094,-1.0,0.0,0.0,0.0,0.0,0.0,0.0,0.0,0.0,-0.0015247778042,0.00457595444257,-0.00154811721046,-1.0,0.0,0.0,0.0,0.0,0.0,0.0,0.0,0.0,-0.192216839885,-0.223040155188,9.80474802609,-1.0,0.0,0.0,0.0,0.0,0.0,0.0,0.0,0.0
1596620937246220782,1867,1596620937245778208,xsense,-0.0126881279998,0.00299620342726,0.561681704319,0.82725068583,-1.0,0.0,0.0,0.0,0.0,0.0,0.0,0.0,0.0,-0.00306997104496,0.00148740127801,-0.000112691468181,-1.0,0.0,0.0,0.0,0.0,0.0,0.0,0.0,0.0,-0.195850727328,-0.174938999656,9.82990630785,-1.0,0.0,0.0,0.0,0.0,0.0,0.0,0.0,0.0
1596620937248013702,1868,1596620937247281500,xsense,-0.0126707226301,0.00301888408501,0.56168954478,0.827245546626,-1.0,0.0,0.0,0.0,0.0,0.0,0.0,0.0,0.0,0.00448979667326,0.00616724086297,0.000241516436561,-1.0,0.0,0.0,0.0,0.0,0.0,0.0,0.0,0.0,-0.195557717436,-0.199270348136,9.82947932362,-1.0,0.0,0.0,0.0,0.0,0.0,0.0,0.0,0.0
1596620937249684238,1869,1596620937249361036,xsense,-0.0126857472169,0.00300976609587,0.561682116537,0.827250393224,-1.0,0.0,0.0,0.0,0.0,0.0,0.0,0.0,0.0,-0.00451114003929,0.00455120910409,-0.00319883329718,-1.0,0.0,0.0,0.0,0.0,0.0,0.0,0.0,0.0,-0.17175893812,-0.198641447091,9.83148280086,-1.0,0.0,0.0,0.0,0.0,0.0,0.0,0.0,0.0
1596620937276224390,1870,1596620937275741322,xsense,-0.0126678824655,0.00300436931055,0.561689103265,0.827245942748,-1.0,0.0,0.0,0.0,0.0,0.0,0.0,0.0,0.0,0.00150355085961,0.00154678080266,7.61928632174e-05,-1.0,0.0,0.0,0.0,0.0,0.0,0.0,0.0,0.0,-0.173395838962,-0.149989512759,9.83231664567,-1.0,0.0,0.0,0.0,0.0,0.0,0.0,0.0,0.0
1596620937277819281,1871,1596620937277583639,xsense,-0.0126729035007,0.00302086910435,0.561682300216,0.827250424896,-1.0,0.0,0.0,0.0,0.0,0.0,0.0,0.0,0.0,2.04976128528e-05,0.00766456859354,-0.00298349269826,-1.0,0.0,0.0,0.0,0.0,0.0,0.0,0.0,0.0,-0.197498453765,-0.174951902639,9.8298731127,-1.0,0.0,0.0,0.0,0.0,0.0,0.0,0.0,0.0
1596620937295976192,1872,1596620937295582973,xsense,-0.0126676235877,0.00300755793475,0.561681949815,0.827250792179,-1.0,0.0,0.0,0.0,0.0,0.0,0.0,0.0,0.0,-0.0014827836168,0.00152199419044,-0.0015745784547,-1.0,0.0,0.0,0.0,0.0,0.0,0.0,0.0,0.0,-0.197945979799,-0.175028280934,9.82986274911,-1.0,0.0,0.0,0.0,0.0,0.0,0.0,0.0,0.0
1596620937297387756,1873,1596620937296980648,xsense,-0.0126597146311,0.00300514334414,0.561681580967,0.827251172463,-1.0,0.0,0.0,0.0,0.0,0.0,0.0,0.0,0.0,2.07274176884e-05,0.00306881351195,-0.00149830678139,-1.0,0.0,0.0,0.0,0.0,0.0,0.0,0.0,0.0,-0.171169649265,-0.198394875041,9.80712642534,-1.0,0.0,0.0,0.0,0.0,0.0,0.0,0.0,0.0
1596620937316382504,1874,1596620937315756103,xsense,-0.0126526830709,0.00300219486359,0.561680575061,0.827251973728,-1.0,0.0,0.0,0.0,0.0,0.0,0.0,0.0,0.0,2.07268814934e-05,0.00306881591948,-0.00149830756297,-1.0,0.0,0.0,0.0,0.0,0.0,0.0,0.0,0.0,-0.197796126703,-0.199505300074,9.82942976749,-1.0,0.0,0.0,0.0,0.0,0.0,0.0,0.0,0.0
1596620937318411508,1875,1596620937318087916,xsense,-0.0126514538257,0.00302306242059,0.561674009385,0.827256374403,-1.0,0.0,0.0,0.0,0.0,0.0,0.0,0.0,0.0,0.0015449371358,0.00768448333814,-0.00292030076233,-1.0,0.0,0.0,0.0,0.0,0.0,0.0,0.0,0.0,-0.198320213143,-0.19943272686,9.82942068223,-1.0,0.0,0.0,0.0,0.0,0.0,0.0,0.0,0.0
1596620937335559957,1876,1596620937335280343,xsense,-0.0126490809573,0.00302612232212,0.561686348631,0.827248021512,-1.0,0.0,0.0,0.0,0.0,0.0,0.0,0.0,0.0,-0.000125962379826,0.00456609288139,0.00156412562968,-1.0,0.0,0.0,0.0,0.0,0.0,0.0,0.0,0.0,-0.201602589281,-0.175437919647,9.8541572198,-1.0,0.0,0.0,0.0,0.0,0.0,0.0,0.0,0.0
1596620937336959830,1877,1596620937336510819,xsense,-0.0126641046808,0.00301700410517,0.561678917569,0.827252870468,-1.0,0.0,0.0,0.0,0.0,0.0,0.0,0.0,0.0,-0.00451088468537,0.00455102819928,-0.00319953806717,-1.0,0.0,0.0,0.0,0.0,0.0,0.0,0.0,0.0,-0.198030028775,-0.174717358418,9.80549090359,-1.0,0.0,0.0,0.0,0.0,0.0,0.0,0.0,0.0
1596620937355704996,1878,1596620937355283771,xsense,-0.0126549474506,0.00302459447731,0.561686013248,0.827248165096,-1.0,0.0,0.0,0.0,0.0,0.0,0.0,0.0,0.0,0.00146132540141,0.00460084735706,0.000102849992497,-1.0,0.0,0.0,0.0,0.0,0.0,0.0,0.0,0.0,-0.177503594304,-0.199586496285,9.85573379824,-1.0,0.0,0.0,0.0,0.0,0.0,0.0,0.0,0.0
1596620937357173550,1879,1596620937356916660,xsense,-0.0126528984711,0.00301809595715,0.56167279028,0.827257198165,-1.0,0.0,0.0,0.0,0.0,0.0,0.0,0.0,0.0,-0.00137782139327,0.00307870347754,-0.004610887129,-1.0,0.0,0.0,0.0,0.0,0.0,0.0,0.0,0.0,-0.174526913413,-0.174233716495,9.80749586905,-1.0,0.0,0.0,0.0,0.0,0.0,0.0,0.0,0.0
1596620937375978692,1880,1596620937375651253,xsense,-0.01265819862,0.00300684208578,0.561670829716,0.8272584892,-1.0,0.0,0.0,0.0,0.0,0.0,0.0,0.0,0.0,-0.00302823062731,0.00302899947728,-0.00162493109345,-1.0,0.0,0.0,0.0,0.0,0.0,0.0,0.0,0.0,-0.202493875425,-0.200446384629,9.85369220657,-1.0,0.0,0.0,0.0,0.0,0.0,0.0,0.0,0.0
1596620937378431905,1881,1596620937377355653,xsense,-0.0126546657239,0.00301068535607,0.561670419446,0.827258807828,-1.0,0.0,0.0,0.0,0.0,0.0,0.0,0.0,0.0,-3.43220967652e-07,0.00459587200366,-0.00148500749752,-1.0,0.0,0.0,0.0,0.0,0.0,0.0,0.0,0.0,-0.179219860978,-0.17556000328,9.8561297615,-1.0,0.0,0.0,0.0,0.0,0.0,0.0,0.0,0.0
1596620937396039720,1882,1596620937395563869,xsense,-0.0126521423495,0.00301375484738,0.561681670455,0.827251196222,-1.0,0.0,0.0,0.0,0.0,0.0,0.0,0.0,0.0,-0.000126369151457,0.00456604803446,0.00156427673821,-1.0,0.0,0.0,0.0,0.0,0.0,0.0,0.0,0.0,-0.19996292702,-0.175250259424,9.80544216578,-1.0,0.0,0.0,0.0,0.0,0.0,0.0,0.0,0.0
1596620937397320588,1883,1596620937397001473,xsense,-0.012656931061,0.00300246265269,0.561687133716,0.827247454594,-1.0,0.0,0.0,0.0,0.0,0.0,0.0,0.0,0.0,-0.00309120465129,0.00301409723054,-0.000100429817062,-1.0,0.0,0.0,0.0,0.0,0.0,0.0,0.0,0.0,-0.177355605857,-0.199647333528,9.83136305577,-1.0,0.0,0.0,0.0,0.0,0.0,0.0,0.0,0.0
1596620937399574096,1884,1596620937399003187,xsense,-0.0126305356514,0.00301260537682,0.561695102768,0.827242410243,-1.0,0.0,0.0,0.0,0.0,0.0,0.0,0.0,0.0,0.00453126396685,0.00311379956186,0.000216817251572,-1.0,0.0,0.0,0.0,0.0,0.0,0.0,0.0,0.0,-0.224957651286,-0.17597327313,9.80339813971,-1.0,0.0,0.0,0.0,0.0,0.0,0.0,0.0,0.0
1596620937418782380,1885,1596620937418222605,xsense,-0.0126547014384,0.00301571752994,0.561700202344,0.82723856696,-1.0,0.0,0.0,0.0,0.0,0.0,0.0,0.0,0.0,-0.00467901659605,0.00757513779291,-0.000124423925841,-1.0,0.0,0.0,0.0,0.0,0.0,0.0,0.0,0.0,-0.20048571142,-0.199744053499,9.80499351238,-1.0,0.0,0.0,0.0,0.0,0.0,0.0,0.0,0.0
1596620937420768176,1886,1596620937420367020,xsense,-0.0126388859421,0.00300066803223,0.561686798677,0.827247964486,-1.0,0.0,0.0,0.0,0.0,0.0,0.0,0.0,0.0,0.000189455272772,4.48194361067e-05,-0.00457391090768,-1.0,0.0,0.0,0.0,0.0,0.0,0.0,0.0,0.0,-0.204892271302,-0.200924068579,9.85363289784,-1.0,0.0,0.0,0.0,0.0,0.0,0.0,0.0,0.0
1596620937446277609,1887,1596620937445939778,xsense,-0.0126419965801,0.00299985797523,0.561698766319,0.827239793947,-1.0,0.0,0.0,0.0,0.0,0.0,0.0,0.0,0.0,-0.00165107509568,0.00454606436672,0.00150080069342,-1.0,0.0,0.0,0.0,0.0,0.0,0.0,0.0,0.0,-0.179450726241,-0.175482061491,9.83175574572,-1.0,0.0,0.0,0.0,0.0,0.0,0.0,0.0,0.0
1596620937448335601,1888,1596620937448090137,xsense,-0.0126387939668,0.00300300593202,0.561707307738,0.827234031744,-1.0,0.0,0.0,0.0,0.0,0.0,0.0,0.0,0.0,-6.34007942035e-05,0.00458098255341,3.97301641454e-05,-1.0,0.0,0.0,0.0,0.0,0.0,0.0,0.0,0.0,-0.179225151604,-0.199965999964,9.83132267545,-1.0,0.0,0.0,0.0,0.0,0.0,0.0,0.0,0.0
1596620937465395997,1889,1596620937465125048,xsense,-0.0126308850556,0.00300059252693,0.561706939328,0.827234411456,-1.0,0.0,0.0,0.0,0.0,0.0,0.0,0.0,0.0,2.09536063302e-05,0.00306894367579,-0.00149814812513,-1.0,0.0,0.0,0.0,0.0,0.0,0.0,0.0,0.0,-0.2066178153,-0.176684672416,9.85403106224,-1.0,0.0,0.0,0.0,0.0,0.0,0.0,0.0,0.0
1596620937466997637,1890,1596620937466705459,xsense,-0.012631983224,0.00300969240057,0.561707805798,0.827233773281,-1.0,0.0,0.0,0.0,0.0,0.0,0.0,0.0,0.0,-2.1338814529e-05,0.00612294046717,-0.001471665149,-1.0,0.0,0.0,0.0,0.0,0.0,0.0,0.0,0.0,-0.182747334178,-0.176049108427,9.85605626431,-1.0,0.0,0.0,0.0,0.0,0.0,0.0,0.0,0.0
1596620937486145888,1891,1596620937485867483,xsense,-0.0126348972694,0.00300902451641,0.561713464855,0.82722988857,-1.0,0.0,0.0,0.0,0.0,0.0,0.0,0.0,0.0,-0.00158795784492,0.0045610114767,-2.39485898014e-05,-1.0,0.0,0.0,0.0,0.0,0.0,0.0,0.0,0.0,-0.177872074764,-0.223975295332,9.80654745772,-1.0,0.0,0.0,0.0,0.0,0.0,0.0,0.0,0.0
1596620937486775382,1892,1596620937486561552,xsense,-0.0126213164086,0.00301009871798,0.561708514739,0.827233453233,-1.0,0.0,0.0,0.0,0.0,0.0,0.0,0.0,0.0,0.001608816998,0.00310391591345,-0.00295904905122,-1.0,0.0,0.0,0.0,0.0,0.0,0.0,0.0,0.0,-0.203918631689,-0.175814098023,9.8053506046,-1.0,0.0,0.0,0.0,0.0,0.0,0.0,0.0,0.0
1596620937505069073,1893,1596620937504789477,xsense,-0.0126134074422,0.00300768477881,0.5617081462,0.82723383289,-1.0,0.0,0.0,0.0,0.0,0.0,0.0,0.0,0.0,2.09857262727e-05,0.00306895677743,-0.00149815076407,-1.0,0.0,0.0,0.0,0.0,0.0,0.0,0.0,0.0,-0.207591048942,-0.201096007401,9.85357290374,-1.0,0.0,0.0,0.0,0.0,0.0,0.0,0.0,0.0
1596620937505914903,1894,1596620937505727741,xsense,-0.0126379152227,0.00301088409407,0.561700412084,0.827238698769,-1.0,0.0,0.0,0.0,0.0,0.0,0.0,0.0,0.0,-0.00455266561125,0.0076048727087,-0.00317432663685,-1.0,0.0,0.0,0.0,0.0,0.0,0.0,0.0,0.0,-0.180416205482,-0.175325428255,9.80736984587,-1.0,0.0,0.0,0.0,0.0,0.0,0.0,0.0,0.0
1596620937526085334,1895,1596620937525742576,xsense,-0.0126197747491,0.00300629391849,0.561712940862,0.827230485143,-1.0,0.0,0.0,0.0,0.0,0.0,0.0,0.0,0.0,0.00143982942062,0.00153204811118,0.00160170992446,-1.0,0.0,0.0,0.0,0.0,0.0,0.0,0.0,0.0,-0.20518311427,-0.176119913413,9.80531873753,-1.0,0.0,0.0,0.0,0.0,0.0,0.0,0.0,0.0
1596620937529882460,1896,1596620937529486892,xsense,-0.0126187560257,0.00299917619598,0.561712325503,0.827230944366,-1.0,0.0,0.0,0.0,0.0,0.0,0.0,0.0,0.0,-0.0015034494749,0.00304896158666,-0.00156192856492,-1.0,0.0,0.0,0.0,0.0,0.0,0.0,0.0,0.0,-0.206079945471,-0.225404043588,9.82879074154,-1.0,0.0,0.0,0.0,0.0,0.0,0.0,0.0,0.0
1596620937546245220,1897,1596620937545828304,xsense,-0.0126194022572,0.00300942112992,0.561705566971,0.827235486488,-1.0,0.0,0.0,0.0,0.0,0.0,0.0,0.0,0.0,4.2052300994e-05,0.0061380081983,-0.00299616534402,-1.0,0.0,0.0,0.0,0.0,0.0,0.0,0.0,0.0,-0.182884906261,-0.200438668212,9.83124565195,-1.0,0.0,0.0,0.0,0.0,0.0,0.0,0.0,0.0
1596620937547504626,1898,1596620937546924213,xsense,-0.0126227276738,0.00300843573719,0.561706906029,0.827234530094,-1.0,0.0,0.0,0.0,0.0,0.0,0.0,0.0,0.0,-0.00152469190536,0.00457595308271,-0.00154870850176,-1.0,0.0,0.0,0.0,0.0,0.0,0.0,0.0,0.0,-0.186117148512,-0.176594376372,9.85598345087,-1.0,0.0,0.0,0.0,0.0,0.0,0.0,0.0,0.0
1596620937566797959,1899,1596620937566362721,xsense,-0.0126168904884,0.00299525226036,0.561712646687,0.827230768946,-1.0,0.0,0.0,0.0,0.0,0.0,0.0,0.0,0.0,-0.0015457279716,0.00150693471979,-5.06488385325e-05,-1.0,0.0,0.0,0.0,0.0,0.0,0.0,0.0,0.0,-0.181672821224,-0.200188133027,9.80690103914,-1.0,0.0,0.0,0.0,0.0,0.0,0.0,0.0,0.0
1596620937568654734,1900,1596620937568022777,xsense,-0.0126119006692,0.00300905119097,0.561720241666,0.827225637704,-1.0,0.0,0.0,0.0,0.0,0.0,0.0,0.0,0.0,0.00143944846965,0.00612810348053,0.000117107310904,-1.0,0.0,0.0,0.0,0.0,0.0,0.0,0.0,0.0,-0.184079791754,-0.200673272004,9.83121856578,-1.0,0.0,0.0,0.0,0.0,0.0,0.0,0.0,0.0
1596620937587228139,1901,1596620937586364996,xsense,-0.0126123486467,0.00301944122709,0.561707175396,0.827234465399,-1.0,0.0,0.0,0.0,0.0,0.0,0.0,0.0,0.0,0.000105787479771,0.00615306977031,-0.004520740804,-1.0,0.0,0.0,0.0,0.0,0.0,0.0,0.0,0.0,-0.184679069096,-0.200601376304,9.83120879378,-1.0,0.0,0.0,0.0,0.0,0.0,0.0,0.0,0.0
1596620937588738011,1902,1596620937588208437,xsense,-0.0126175716853,0.00300746223199,0.561720401499,0.827225448469,-1.0,0.0,0.0,0.0,0.0,0.0,0.0,0.0,0.0,-0.00315516839296,0.00299879923753,0.00142310363594,-1.0,0.0,0.0,0.0,0.0,0.0,0.0,0.0,0.0,-0.185125831961,-0.200754134045,9.83119727232,-1.0,0.0,0.0,0.0,0.0,0.0,0.0,0.0,0.0
1596620937606313639,1903,1596620937605793060,xsense,-0.0126182175103,0.00301770791645,0.561713643556,0.827229990189,-1.0,0.0,0.0,0.0,0.0,0.0,0.0,0.0,0.0,4.2222893539e-05,0.006138119301,-0.00299603017344,-1.0,0.0,0.0,0.0,0.0,0.0,0.0,0.0,0.0,-0.209892862162,-0.201551316487,9.82913715959,-1.0,0.0,0.0,0.0,0.0,0.0,0.0,0.0,0.0
1596620937607980119,1904,1596620937607496729,xsense,-0.012610479509,0.00301452477555,0.561715823623,0.827228639457,-1.0,0.0,0.0,0.0,0.0,0.0,0.0,0.0,0.0,2.11106337189e-05,0.00306906331778,-0.00149801627501,-1.0,0.0,0.0,0.0,0.0,0.0,0.0,0.0,0.0,-0.162383327111,-0.175865571454,9.83365196489,-1.0,0.0,0.0,0.0,0.0,0.0,0.0,0.0,0.0
1596620937626607494,1905,1596620937625960149,xsense,-0.0126113236531,0.00302462527185,0.561715373638,0.827228895274,-1.0,0.0,0.0,0.0,0.0,0.0,0.0,0.0,0.0,-2.15228930693e-05,0.00612309635318,-0.00147142081587,-1.0,0.0,0.0,0.0,0.0,0.0,0.0,0.0,0.0,-0.208751148302,-0.201075361401,9.80479380754,-1.0,0.0,0.0,0.0,0.0,0.0,0.0,0.0,0.0
1596620937628200034,1906,1596620937627679606,xsense,-0.0126147647168,0.00302297024076,0.561722177851,0.827224228533,-1.0,0.0,0.0,0.0,0.0,0.0,0.0,0.0,0.0,-0.00158844701651,0.00456091043016,-2.42829236718e-05,-1.0,0.0,0.0,0.0,0.0,0.0,0.0,0.0,0.0,-0.211994975891,-0.17723593814,9.82953024024,-1.0,0.0,0.0,0.0,0.0,0.0,0.0,0.0,0.0
1596620937631108680,1907,1596620937630785158,xsense,-0.0126089618174,0.00303773023747,0.56170935336,0.82723297119,-1.0,0.0,0.0,0.0,0.0,0.0,0.0,0.0,0.0,0.00163061451639,0.00617336277864,-0.0044563893508,-1.0,0.0,0.0,0.0,0.0,0.0,0.0,0.0,0.0,-0.185476119416,-0.200514157134,9.80682318612,-1.0,0.0,0.0,0.0,0.0,0.0,0.0,0.0,0.0
1596620937647275216,1908,1596620937646857693,xsense,-0.0125976588962,0.0030282120631,0.561722236984,0.827224429886,-1.0,0.0,0.0,0.0,0.0,0.0,0.0,0.0,0.0,-8.52343543418e-05,0.00151197848049,0.00153790387495,-1.0,0.0,0.0,0.0,0.0,0.0,0.0,0.0,0.0,-0.212210932554,-0.201566586208,9.82908707116,-1.0,0.0,0.0,0.0,0.0,0.0,0.0,0.0,0.0
1596620937648804129,1909,1596620937648412815,xsense,-0.0125981055132,0.00303860340756,0.561709171188,0.827233257087,-1.0,0.0,0.0,0.0,0.0,0.0,0.0,0.0,0.0,0.000106235284525,0.00615320381751,-0.00452064651819,-1.0,0.0,0.0,0.0,0.0,0.0,0.0,0.0,0.0,-0.188948932315,-0.176522864186,9.83155916173,-1.0,0.0,0.0,0.0,0.0,0.0,0.0,0.0,0.0
1596620937676521062,1910,1596620937675872255,xsense,-0.0126038499949,0.00302623410249,0.561721518103,0.827224830969,-1.0,0.0,0.0,0.0,0.0,0.0,0.0,0.0,0.0,-0.00315561447098,0.00299860966858,0.00142256292665,-1.0,0.0,0.0,0.0,0.0,0.0,0.0,0.0,0.0,-0.19144006966,-0.177156927903,9.85587140084,-1.0,0.0,0.0,0.0,0.0,0.0,0.0,0.0,0.0
1596620937678910683,1911,1596620937678496685,xsense,-0.0126169948807,0.00302774160227,0.561714277,0.827229542047,-1.0,0.0,0.0,0.0,0.0,0.0,0.0,0.0,0.0,-0.00300651671992,0.00609785746578,-0.00312462348153,-1.0,0.0,0.0,0.0,0.0,0.0,0.0,0.0,0.0,-0.187796645608,-0.176498223997,9.80721025968,-1.0,0.0,0.0,0.0,0.0,0.0,0.0,0.0,0.0
1596620937696033897,1912,1596620937695573298,xsense,-0.0126244506252,0.00303235196097,0.561708761696,0.827233156445,-1.0,0.0,0.0,0.0,0.0,0.0,0.0,0.0,0.0,-0.00148206674659,0.00611807334958,-0.0030602416625,-1.0,0.0,0.0,0.0,0.0,0.0,0.0,0.0,0.0,-0.189752214577,-0.201607488546,9.83109160455,-1.0,0.0,0.0,0.0,0.0,0.0,0.0,0.0,0.0
1596620937697682323,1913,1596620937697380722,xsense,-0.0126167409184,0.00302979179709,0.56171470204,0.827229249798,-1.0,0.0,0.0,0.0,0.0,0.0,0.0,0.0,0.0,-4.28526434906e-05,0.00305405019893,2.66962231859e-05,-1.0,0.0,0.0,0.0,0.0,0.0,0.0,0.0,0.0,-0.212470741175,-0.201849105096,9.80469800922,-1.0,0.0,0.0,0.0,0.0,0.0,0.0,0.0,0.0
1596620937715372385,1914,1596620937714940595,xsense,-0.0126197426349,0.00302825170105,0.561715329319,0.827228783708,-1.0,0.0,0.0,0.0,0.0,0.0,0.0,0.0,0.0,-0.00152466227005,0.00457595645925,-0.00154901370319,-1.0,0.0,0.0,0.0,0.0,0.0,0.0,0.0,0.0,-0.190573536117,-0.201763828963,9.83107250971,-1.0,0.0,0.0,0.0,0.0,0.0,0.0,0.0,0.0
1596620937717019794,1915,1596620937716488866,xsense,-0.0125991348136,0.00303472248252,0.561709138612,0.827233277777,-1.0,0.0,0.0,0.0,0.0,0.0,0.0,0.0,0.0,0.00313422014898,0.00312476526411,-0.00289350133792,-1.0,0.0,0.0,0.0,0.0,0.0,0.0,0.0,0.0,-0.191633286149,-0.177288247312,9.83149343273,-1.0,0.0,0.0,0.0,0.0,0.0,0.0,0.0,0.0
1596620937736510887,1916,1596620937735992918,xsense,-0.0126191332113,0.00303107411272,0.561702160877,0.827237724317,-1.0,0.0,0.0,0.0,0.0,0.0,0.0,0.0,0.0,-0.00453093603403,0.00607752149901,-0.00318940653478,-1.0,0.0,0.0,0.0,0.0,0.0,0.0,0.0,0.0,-0.191393795013,-0.20176341783,9.83105658475,-1.0,0.0,0.0,0.0,0.0,0.0,0.0,0.0,0.0
1596620937738663528,1917,1596620937738111994,xsense,-0.0126007972588,0.0030266257615,0.561708384726,0.827233794023,-1.0,0.0,0.0,0.0,0.0,0.0,0.0,0.0,0.0,0.00150295755888,0.00154731271544,7.79284464061e-05,-1.0,0.0,0.0,0.0,0.0,0.0,0.0,0.0,0.0,-0.190400768918,-0.177031063933,9.80715044227,-1.0,0.0,0.0,0.0,0.0,0.0,0.0,0.0,0.0
1596620937756423334,1918,1596620937755851026,xsense,-0.0126037223074,0.00302607964114,0.561702070021,0.827238039237,-1.0,0.0,0.0,0.0,0.0,0.0,0.0,0.0,0.0,-0.00146053788628,0.00459104796813,-0.00307370090637,-1.0,0.0,0.0,0.0,0.0,0.0,0.0,0.0,0.0,-0.19206416314,-0.201916029053,9.83104037632,-1.0,0.0,0.0,0.0,0.0,0.0,0.0,0.0,0.0
1596620937757819318,1919,1596620937757434480,xsense,-0.0126066401068,0.00302540541548,0.561707726981,0.827234156087,-1.0,0.0,0.0,0.0,0.0,0.0,0.0,0.0,0.0,-0.00158897349026,0.00456078837986,-2.45116885171e-05,-1.0,0.0,0.0,0.0,0.0,0.0,0.0,0.0,0.0,-0.19388616397,-0.15326763951,9.83188337974,-1.0,0.0,0.0,0.0,0.0,0.0,0.0,0.0,0.0
1596620937776522912,1920,1596620937775975474,xsense,-0.0125973159916,0.00303270546687,0.561715261949,0.827229154963,-1.0,0.0,0.0,0.0,0.0,0.0,0.0,0.0,0.0,0.0014599066509,0.00460140379718,0.000104772975664,-1.0,0.0,0.0,0.0,0.0,0.0,0.0,0.0,0.0,-0.217279086967,-0.202724273691,9.82895253347,-1.0,0.0,0.0,0.0,0.0,0.0,0.0,0.0,0.0
1596620937778486353,1921,1596620937777842382,xsense,-0.0125958560692,0.00302577450227,0.561720959164,0.827225333953,-1.0,0.0,0.0,0.0,0.0,0.0,0.0,0.0,0.0,-0.00156746125224,0.0030337630604,-3.79487772697e-05,-1.0,0.0,0.0,0.0,0.0,0.0,0.0,0.0,0.0,-0.194712024372,-0.153279128775,9.83186687937,-1.0,0.0,0.0,0.0,0.0,0.0,0.0,0.0,0.0
1596620937779276092,1922,1596620937778715646,xsense,-0.0125992661646,0.0030246789388,0.561720148082,0.827225836787,-1.0,0.0,0.0,0.0,0.0,0.0,0.0,0.0,0.0,-0.00152466369094,0.00457594717828,-0.00154916549827,-1.0,0.0,0.0,0.0,0.0,0.0,0.0,0.0,0.0,-0.167335236552,-0.20110030919,9.80874795042,-1.0,0.0,0.0,0.0,0.0,0.0,0.0,0.0,0.0
1596620937797954667,1923,1596620937797287740,xsense,-0.0126040556487,0.00301337814571,0.561725601747,0.827222101781,-1.0,0.0,0.0,0.0,0.0,0.0,0.0,0.0,0.0,-0.00309192198159,0.00301344235367,-0.000102700206778,-1.0,0.0,0.0,0.0,0.0,0.0,0.0,0.0,0.0,-0.194768636032,-0.178061848446,9.83141783839,-1.0,0.0,0.0,0.0,0.0,0.0,0.0,0.0,0.0
1596620937799593848,1924,1596620937799410063,xsense,-0.0125778362525,0.00302353764166,0.561721509433,0.827225242661,-1.0,0.0,0.0,0.0,0.0,0.0,0.0,0.0,0.0,0.00465899141805,0.0031453838759,-0.00282807930758,-1.0,0.0,0.0,0.0,0.0,0.0,0.0,0.0,0.0,-0.168004887014,-0.201253712631,9.80873335747,-1.0,0.0,0.0,0.0,0.0,0.0,0.0,0.0,0.0
1596620937828010645,1925,1596620937827401763,xsense,-0.0125928512835,0.00301441810444,0.561714062733,0.827230104087,-1.0,0.0,0.0,0.0,0.0,0.0,0.0,0.0,0.0,-0.00450916342867,0.00455039782698,-0.00320340789501,-1.0,0.0,0.0,0.0,0.0,0.0,0.0,0.0,0.0,-0.198870382242,-0.203356423417,9.8796223223,-1.0,0.0,0.0,0.0,0.0,0.0,0.0,0.0,0.0
1596620937829191931,1926,1596620937828799300,xsense,-0.012583703357,0.00302214326001,0.561720287815,0.827225988057,-1.0,0.0,0.0,0.0,0.0,0.0,0.0,0.0,0.0,0.00145971480876,0.00460147773885,0.000105038792641,-1.0,0.0,0.0,0.0,0.0,0.0,0.0,0.0,0.0,-0.195199232378,-0.202539688495,9.83096579899,-1.0,0.0,0.0,0.0,0.0,0.0,0.0,0.0,0.0
1596620937845361444,1927,1596620937845186742,xsense,-0.0125818420881,0.0030155071909,0.561713368778,0.827230738852,-1.0,0.0,0.0,0.0,0.0,0.0,0.0,0.0,0.0,-0.00143865506413,0.00306406854407,-0.00308723602348,-1.0,0.0,0.0,0.0,0.0,0.0,0.0,0.0,0.0,-0.171945863174,-0.177489796042,9.83346022541,-1.0,0.0,0.0,0.0,0.0,0.0,0.0,0.0,0.0
1596620937845616948,1928,1596620937845523895,xsense,-0.0125699261207,0.0030063234444,0.561719627271,0.827226703701,-1.0,0.0,0.0,0.0,0.0,0.0,0.0,0.0,0.0,-2.15963500737e-05,0.00152704071207,1.34050673271e-05,-1.0,0.0,0.0,0.0,0.0,0.0,0.0,0.0,0.0,-0.220112644767,-0.203267933398,9.82887825705,-1.0,0.0,0.0,0.0,0.0,0.0,0.0,0.0,0.0
1596620937865978612,1929,1596620937865836792,xsense,-0.0125601457032,0.00301453545094,0.561719464048,0.827226933208,-1.0,0.0,0.0,0.0,0.0,0.0,0.0,0.0,0.0,0.00152413479253,0.00461669517708,-0.00141948149631,-1.0,0.0,0.0,0.0,0.0,0.0,0.0,0.0,0.0,-0.173160240293,-0.153091037027,9.8338793329,-1.0,0.0,0.0,0.0,0.0,0.0,0.0,0.0,0.0
1596620937866373104,1930,1596620937866211833,xsense,-0.0125637807678,0.00301302434322,0.56172486269,0.827223217598,-1.0,0.0,0.0,0.0,0.0,0.0,0.0,0.0,0.0,-0.00158925190321,0.00456073488989,-2.47474178098e-05,-1.0,0.0,0.0,0.0,0.0,0.0,0.0,0.0,0.0,-0.197918420624,-0.227434342235,9.85483237074,-1.0,0.0,0.0,0.0,0.0,0.0,0.0,0.0,0.0
1596620937885342788,1931,1596620937885216593,xsense,-0.0125581771174,0.00302764089248,0.561718351693,0.827227670565,-1.0,0.0,0.0,0.0,0.0,0.0,0.0,0.0,0.0,0.00156712014254,0.0061589503809,-0.0029305920007,-1.0,0.0,0.0,0.0,0.0,0.0,0.0,0.0,0.0,-0.197760853021,-0.178151969114,9.83135647275,-1.0,0.0,0.0,0.0,0.0,0.0,0.0,0.0,0.0
1596620937885999288,1932,1596620937885805279,xsense,-0.0125467596132,0.00301808765802,0.561730608526,0.82721955575,-1.0,0.0,0.0,0.0,0.0,0.0,0.0,0.0,0.0,-8.62434250188e-05,0.0015118679718,0.00153797016308,-1.0,0.0,0.0,0.0,0.0,0.0,0.0,0.0,0.0,-0.173128670218,-0.201828585043,9.83300034259,-1.0,0.0,0.0,0.0,0.0,0.0,0.0,0.0,0.0
1596620937905590124,1933,1596620937905384724,xsense,-0.0125384466651,0.00301597075633,0.561717625498,0.827228505602,-1.0,0.0,0.0,0.0,0.0,0.0,0.0,0.0,0.0,0.000150627912381,0.0030996288125,-0.00454695810887,-1.0,0.0,0.0,0.0,0.0,0.0,0.0,0.0,0.0,-0.195602846099,-0.201995667994,9.80659602382,-1.0,0.0,0.0,0.0,0.0,0.0,0.0,0.0,0.0
1596620937906285578,1934,1596620937906042247,xsense,-0.0125437170728,0.00300469080233,0.561717153853,0.827228787012,-1.0,0.0,0.0,0.0,0.0,0.0,0.0,0.0,0.0,-0.00302750973016,0.00302839470781,-0.00162788321743,-1.0,0.0,0.0,0.0,0.0,0.0,0.0,0.0,0.0,-0.200030850172,-0.203114020674,9.85523025336,-1.0,0.0,0.0,0.0,0.0,0.0,0.0,0.0,0.0
1596620937926335824,1935,1596620937925717164,xsense,-0.0125447662772,0.00301463986345,0.561723014392,0.827224755364,-1.0,0.0,0.0,0.0,0.0,0.0,0.0,0.0,0.0,-8.66744376857e-05,0.00610819326477,5.36436971704e-05,-1.0,0.0,0.0,0.0,0.0,0.0,0.0,0.0,0.0,-0.172719700815,-0.177242813181,9.80908434186,-1.0,0.0,0.0,0.0,0.0,0.0,0.0,0.0,0.0
1596620937928357018,1936,1596620937927889935,xsense,-0.0125496091019,0.00300296094779,0.561723626581,0.827224308684,-1.0,0.0,0.0,0.0,0.0,0.0,0.0,0.0,0.0,-0.00302746106065,0.00302840466714,-0.00162797710706,-1.0,0.0,0.0,0.0,0.0,0.0,0.0,0.0,0.0,-0.199551867186,-0.178537213707,9.83131329335,-1.0,0.0,0.0,0.0,0.0,0.0,0.0,0.0,0.0
1596620937929480640,1937,1596620937929133974,xsense,-0.0125567051112,0.00300868878186,0.561722934454,0.827224650175,-1.0,0.0,0.0,0.0,0.0,0.0,0.0,0.0,0.0,-0.00154640762507,0.00610297188932,-0.00153597858097,-1.0,0.0,0.0,0.0,0.0,0.0,0.0,0.0,0.0,-0.201374818616,-0.203652647317,9.8551917684,-1.0,0.0,0.0,0.0,0.0,0.0,0.0,0.0,0.0
1596620937947959736,1938,1596620937947523938,xsense,-0.0125497820401,0.00300575275326,0.561728083914,0.827221269168,-1.0,0.0,0.0,0.0,0.0,0.0,0.0,0.0,0.0,-4.33887342811e-05,0.00305410427852,2.6886811081e-05,-1.0,0.0,0.0,0.0,0.0,0.0,0.0,0.0,0.0,-0.19837537772,-0.178357656425,9.80696833927,-1.0,0.0,0.0,0.0,0.0,0.0,0.0,0.0,0.0
1596620937950837682,1939,1596620937950382815,xsense,-0.0125633291641,0.00300696095557,0.56173345385,0.827217412638,-1.0,0.0,0.0,0.0,0.0,0.0,0.0,0.0,0.0,-0.00313560950394,0.00606727321583,-7.66380154515e-05,-1.0,0.0,0.0,0.0,0.0,0.0,0.0,0.0,0.0,-0.200201499134,-0.203401606326,9.83084740863,-1.0,0.0,0.0,0.0,0.0,0.0,0.0,0.0,0.0
1596620937975622922,1940,1596620937975205189,xsense,-0.0125500201883,0.00300887476041,0.56174020837,0.827213020912,-1.0,0.0,0.0,0.0,0.0,0.0,0.0,0.0,0.0,0.00148102138835,0.00307457977959,9.21829389315e-05,-1.0,0.0,0.0,0.0,0.0,0.0,0.0,0.0,0.0,-0.17426138435,-0.202340772704,9.80860183426,-1.0,0.0,0.0,0.0,0.0,0.0,0.0,0.0,0.0
1596620937978262468,1941,1596620937978067816,xsense,-0.0125504626651,0.00301927279032,0.561727146395,0.827221846231,-1.0,0.0,0.0,0.0,0.0,0.0,0.0,0.0,0.0,0.000107848986401,0.00615399057938,-0.00451989278146,-1.0,0.0,0.0,0.0,0.0,0.0,0.0,0.0,0.0,-0.201099994956,-0.203409268794,9.83082891108,-1.0,0.0,0.0,0.0,0.0,0.0,0.0,0.0,0.0
1596620937996113699,1942,1596620937995515626,xsense,-0.0125559213821,0.00300662271576,0.561740688557,0.827212613466,-1.0,0.0,0.0,0.0,0.0,0.0,0.0,0.0,0.0,-0.00315720616667,0.00299785108354,0.00142082694981,-1.0,0.0,0.0,0.0,0.0,0.0,0.0,0.0,0.0,-0.17792544423,-0.178506640141,9.83333544298,-1.0,0.0,0.0,0.0,0.0,0.0,0.0,0.0,0.0
1596620937997594156,1943,1596620937997093086,xsense,-0.0125586389585,0.00300609472949,0.561740036071,0.827213017219,-1.0,0.0,0.0,0.0,0.0,0.0,0.0,0.0,0.0,-0.0015246246703,0.00457596434833,-0.00154948619888,-1.0,0.0,0.0,0.0,0.0,0.0,0.0,0.0,0.0,-0.178297707844,-0.178736945572,9.83332451684,-1.0,0.0,0.0,0.0,0.0,0.0,0.0,0.0,0.0
1596620938015990793,1944,1596620938015521480,xsense,-0.0125513312034,0.00300334010556,0.561740751127,0.82721265256,-1.0,0.0,0.0,0.0,0.0,0.0,0.0,0.0,0.0,2.15152362648e-05,0.00306941159152,-0.00149759310094,-1.0,0.0,0.0,0.0,0.0,0.0,0.0,0.0,0.0,-0.180748471417,-0.179302408652,9.85763693983,-1.0,0.0,0.0,0.0,0.0,0.0,0.0,0.0,0.0
1596620938017556360,1945,1596620938017036852,xsense,-0.0125521792844,0.00301343844691,0.561740305094,0.827212905857,-1.0,0.0,0.0,0.0,0.0,0.0,0.0,0.0,0.0,-2.19757769466e-05,0.00612353712798,-0.00147062472891,-1.0,0.0,0.0,0.0,0.0,0.0,0.0,0.0,0.0,-0.200661684133,-0.203383656241,9.80646512751,-1.0,0.0,0.0,0.0,0.0,0.0,0.0,0.0,0.0
1596620938036367678,1946,1596620938035927830,xsense,-0.0125470394419,0.00300077414004,0.561740155351,0.827213131558,-1.0,0.0,0.0,0.0,0.0,0.0,0.0,0.0,0.0,-0.00148111036643,0.00152183148253,-0.00157652849429,-1.0,0.0,0.0,0.0,0.0,0.0,0.0,0.0,0.0,-0.22604451816,-0.179716363467,9.80479473438,-1.0,0.0,0.0,0.0,0.0,0.0,0.0,0.0,0.0
1596620938038268216,1947,1596620938037879581,xsense,-0.0125543395608,0.00300635184281,0.561745770512,0.8272091874,-1.0,0.0,0.0,0.0,0.0,0.0,0.0,0.0,0.0,-0.00161148175678,0.00608771649873,-1.14839998693e-05,-1.0,0.0,0.0,0.0,0.0,0.0,0.0,0.0,0.0,-0.177089658842,-0.202957204912,9.80853844411,-1.0,0.0,0.0,0.0,0.0,0.0,0.0,0.0,0.0
1596620938057579795,1948,1596620938056176064,xsense,-0.0125510012278,0.00300996366514,0.561733353993,0.827217656666,-1.0,0.0,0.0,0.0,0.0,0.0,0.0,0.0,0.0,0.000130015469121,0.00462715200724,-0.00453316156349,-1.0,0.0,0.0,0.0,0.0,0.0,0.0,0.0,0.0,-0.204704006298,-0.179780273676,9.83118471402,-1.0,0.0,0.0,0.0,0.0,0.0,0.0,0.0,0.0
1596620938058367934,1949,1596620938057898738,xsense,-0.0125522570199,0.00301976093465,0.561745523452,0.827209337937,-1.0,0.0,0.0,0.0,0.0,0.0,0.0,0.0,0.0,-0.000152366237612,0.00609294370044,0.0015785725759,-1.0,0.0,0.0,0.0,0.0,0.0,0.0,0.0,0.0,-0.178133273035,-0.203037613264,9.80851788227,-1.0,0.0,0.0,0.0,0.0,0.0,0.0,0.0,0.0
1596620938076136313,1950,1596620938075567304,xsense,-0.0125454259933,0.00301708306083,0.561745499575,0.82720946755,-1.0,0.0,0.0,0.0,0.0,0.0,0.0,0.0,0.0,2.16015318418e-05,0.00306945621669,-0.00149754896267,-1.0,0.0,0.0,0.0,0.0,0.0,0.0,0.0,0.0,-0.203594517314,-0.179300988433,9.80684417534,-1.0,0.0,0.0,0.0,0.0,0.0,0.0,0.0,0.0
1596620938078894959,1951,1596620938078354751,xsense,-0.012533137765,0.00300841506,0.561745172573,0.827209907452,-1.0,0.0,0.0,0.0,0.0,0.0,0.0,0.0,0.0,4.34072358441e-05,0.00154238997637,-0.00151105247989,-1.0,0.0,0.0,0.0,0.0,0.0,0.0,0.0,0.0,-0.157272977856,-0.178475249659,9.83535471426,-1.0,0.0,0.0,0.0,0.0,0.0,0.0,0.0,0.0
1596620938096244377,1952,1596620938095747603,xsense,-0.0125382101082,0.00299554708711,0.561753275925,0.827204374367,-1.0,0.0,0.0,0.0,0.0,0.0,0.0,0.0,0.0,-0.00309242885337,0.00301297742717,-0.000104247781254,-1.0,0.0,0.0,0.0,0.0,0.0,0.0,0.0,0.0,-0.207513130954,-0.204832624275,9.85503997404,-1.0,0.0,0.0,0.0,0.0,0.0,0.0,0.0,0.0
1596620938098043758,1953,1596620938097503425,xsense,-0.0125305047861,0.00299298311203,0.561759217174,0.82720046568,-1.0,0.0,0.0,0.0,0.0,0.0,0.0,0.0,0.0,-4.36383453681e-05,0.00305413922679,2.70501684666e-05,-1.0,0.0,0.0,0.0,0.0,0.0,0.0,0.0,0.0,-0.206423393745,-0.180096419272,9.83114297583,-1.0,0.0,0.0,0.0,0.0,0.0,0.0,0.0,0.0
1596620938098798615,1954,1596620938098443245,xsense,-0.0125385472337,0.00299840826953,0.561758265671,0.82720097034,-1.0,0.0,0.0,0.0,0.0,0.0,0.0,0.0,0.0,-0.00154640150304,0.00610305186891,-0.00153612722756,-1.0,0.0,0.0,0.0,0.0,0.0,0.0,0.0,0.0,-0.181859814256,-0.203918392558,9.83279962058,-1.0,0.0,0.0,0.0,0.0,0.0,0.0,0.0,0.0
1596620938126728529,1955,1596620938126215341,xsense,-0.0125285358125,0.00297881092735,0.561770345452,0.827192989239,-1.0,0.0,0.0,0.0,0.0,0.0,0.0,0.0,0.0,-0.0015897101464,-3.59482445859e-05,0.00145883101664,-1.0,0.0,0.0,0.0,0.0,0.0,0.0,0.0,0.0,-0.184245954416,-0.20456378491,9.85711055676,-1.0,0.0,0.0,0.0,0.0,0.0,0.0,0.0,0.0
1596620938129365285,1956,1596620938128848657,xsense,-0.0125254781071,0.00298225237264,0.561757187582,0.827201958876,-1.0,0.0,0.0,0.0,0.0,0.0,0.0,0.0,0.0,0.000130489181469,0.00462733023697,-0.00453301026036,-1.0,0.0,0.0,0.0,0.0,0.0,0.0,0.0,0.0,-0.18029212458,-0.203655840014,9.80846561993,-1.0,0.0,0.0,0.0,0.0,0.0,0.0,0.0,0.0
1596620938146425321,1957,1596620938146135317,xsense,-0.0125179780468,0.0029795363496,0.561769436369,0.827193763849,-1.0,0.0,0.0,0.0,0.0,0.0,0.0,0.0,0.0,-0.000109064285978,0.00303877508988,0.00155164020301,-1.0,0.0,0.0,0.0,0.0,0.0,0.0,0.0,0.0,-0.207767387155,-0.180407329709,9.83110896376,-1.0,0.0,0.0,0.0,0.0,0.0,0.0,0.0,0.0
1596620938147830148,1958,1596620938147180360,xsense,-0.0125089254519,0.00298765179526,0.56176231076,0.827198710667,-1.0,0.0,0.0,0.0,0.0,0.0,0.0,0.0,0.0,0.00158960639367,0.00463256987045,-0.00294268246533,-1.0,0.0,0.0,0.0,0.0,0.0,0.0,0.0,0.0,-0.207444571628,-0.204736226463,9.83066953132,-1.0,0.0,0.0,0.0,0.0,0.0,0.0,0.0,0.0
1596620938166515301,1959,1596620938166116638,xsense,-0.0125087237885,0.0029705454357,0.561748872251,0.827207901445,-1.0,0.0,0.0,0.0,0.0,0.0,0.0,0.0,0.0,-0.00287441362034,0.00153191606535,-0.00469173634848,-1.0,0.0,0.0,0.0,0.0,0.0,0.0,0.0,0.0,-0.184125073068,-0.179747307686,9.83319871023,-1.0,0.0,0.0,0.0,0.0,0.0,0.0,0.0,0.0
1596620938167854686,1960,1596620938167397910,xsense,-0.0125077325029,0.00296319227949,0.561741846981,0.827212713557,-1.0,0.0,0.0,0.0,0.0,0.0,0.0,0.0,0.0,-0.00143735262188,0.00306426811347,-0.00308781163743,-1.0,0.0,0.0,0.0,0.0,0.0,0.0,0.0,0.0,-0.20656665152,-0.180135113461,9.8067667359,-1.0,0.0,0.0,0.0,0.0,0.0,0.0,0.0,0.0
1596620938186548982,1961,1596620938186074022,xsense,-0.012515036372,0.00296876660822,0.561747461869,0.827208770126,-1.0,0.0,0.0,0.0,0.0,0.0,0.0,0.0,0.0,-0.0016120978789,0.00608762694279,-1.15922317466e-05,-1.0,0.0,0.0,0.0,0.0,0.0,0.0,0.0,0.0,-0.184791223964,-0.180119252292,9.83317940921,-1.0,0.0,0.0,0.0,0.0,0.0,0.0,0.0,0.0
1596620938188116518,1962,1596620938187497680,xsense,-0.0125192172886,0.00296798647103,0.561746150754,0.827209600022,-1.0,0.0,0.0,0.0,0.0,0.0,0.0,0.0,0.0,-0.00152468017535,0.0045759682256,-0.00154971414969,-1.0,0.0,0.0,0.0,0.0,0.0,0.0,0.0,0.0,-0.185314101915,-0.18027492018,9.83316671569,-1.0,0.0,0.0,0.0,0.0,0.0,0.0,0.0,0.0
1596620938206731101,1963,1596620938206251334,xsense,-0.0125094415593,0.00297620045185,0.561745994596,0.827209824445,-1.0,0.0,0.0,0.0,0.0,0.0,0.0,0.0,0.0,0.00152408381121,0.00461735405683,-0.00141785406522,-1.0,0.0,0.0,0.0,0.0,0.0,0.0,0.0,0.0,-0.185061875862,-0.204677822225,9.83272409659,-1.0,0.0,0.0,0.0,0.0,0.0,0.0,0.0,0.0
1596620938208539316,1964,1596620938208017001,xsense,-0.0125207079763,0.00296004716794,0.561739083097,0.827214405407,-1.0,0.0,0.0,0.0,0.0,0.0,0.0,0.0,0.0,-0.00448592820418,0.00302288679245,-0.00321983456385,-1.0,0.0,0.0,0.0,0.0,0.0,0.0,0.0,0.0,-0.185432751822,-0.204827733891,9.83271398788,-1.0,0.0,0.0,0.0,0.0,0.0,0.0,0.0,0.0
1596620938226529031,1965,1596620938225792597,xsense,-0.0125219707733,0.00296983950542,0.561751254526,0.827206085773,-1.0,0.0,0.0,0.0,0.0,0.0,0.0,0.0,0.0,-0.000153494240208,0.00609287688031,0.0015789675837,-1.0,0.0,0.0,0.0,0.0,0.0,0.0,0.0,0.0,-0.208095774376,-0.205225717026,9.80627181319,-1.0,0.0,0.0,0.0,0.0,0.0,0.0,0.0,0.0
1596620938228205375,1966,1596620938227739676,xsense,-0.012504361985,0.00296463499947,0.561756885961,0.827202546506,-1.0,0.0,0.0,0.0,0.0,0.0,0.0,0.0,0.0,0.00150241143811,0.00154779478918,7.96430886221e-05,-1.0,0.0,0.0,0.0,0.0,0.0,0.0,0.0,0.0,-0.186958740599,-0.180589394678,9.83312981237,-1.0,0.0,0.0,0.0,0.0,0.0,0.0,0.0,0.0
1596620938246856842,1967,1596620938246374440,xsense,-0.0125048030403,0.00297503854038,0.561743827326,0.827211370514,-1.0,0.0,0.0,0.0,0.0,0.0,0.0,0.0,0.0,0.000109058277961,0.00615465657755,-0.00451923482745,-1.0,0.0,0.0,0.0,0.0,0.0,0.0,0.0,0.0,-0.209547940121,-0.180683391576,9.80669340024,-1.0,0.0,0.0,0.0,0.0,0.0,0.0,0.0,0.0
1596620938248381293,1968,1596620938248048824,xsense,-0.0125014706576,0.00297813012219,0.561745976824,0.827209950069,-1.0,0.0,0.0,0.0,0.0,0.0,0.0,0.0,0.0,-3.17270091133e-07,0.00459669848214,-0.00148375807084,-1.0,0.0,0.0,0.0,0.0,0.0,0.0,0.0,0.0,-0.160739459163,-0.203757718624,9.81047434846,-1.0,0.0,0.0,0.0,0.0,0.0,0.0,0.0,0.0
1596620938251652816,1969,1596620938251315011,xsense,-0.01249356291,0.00297571713689,0.561745610933,0.827210326695,-1.0,0.0,0.0,0.0,0.0,0.0,0.0,0.0,0.0,2.1695278115e-05,0.0030696159155,-0.00149735132649,-1.0,0.0,0.0,0.0,0.0,0.0,0.0,0.0,0.0,-0.186129618196,-0.180022732525,9.80878842131,-1.0,0.0,0.0,0.0,0.0,0.0,0.0,0.0,0.0
1596620938268104413,1970,1596620938267472204,xsense,-0.0124907919213,0.00297880925243,0.561753613907,0.827204922661,-1.0,0.0,0.0,0.0,0.0,0.0,0.0,0.0,0.0,-6.60762356024e-05,0.00458126386077,4.07728545889e-05,-1.0,0.0,0.0,0.0,0.0,0.0,0.0,0.0,0.0,-0.188605680833,-0.180519909304,9.83309963743,-1.0,0.0,0.0,0.0,0.0,0.0,0.0,0.0,0.0
1596620938270679687,1971,1596620938270370468,xsense,-0.0124870582112,0.00298280483932,0.561746901655,0.827209522874,-1.0,0.0,0.0,0.0,0.0,0.0,0.0,0.0,0.0,6.54833729449e-05,0.00461215596575,-0.00300829418458,-1.0,0.0,0.0,0.0,0.0,0.0,0.0,0.0,0.0,-0.21126484005,-0.180693313611,9.80665637995,-1.0,0.0,0.0,0.0,0.0,0.0,0.0,0.0,0.0
1596620938295810536,1972,1596620938295266498,xsense,-0.0125076429162,0.00297876704631,0.561752139097,0.827205669731,-1.0,0.0,0.0,0.0,0.0,0.0,0.0,0.0,0.0,-0.00466130417599,0.00604599098229,-0.000144314644582,-1.0,0.0,0.0,0.0,0.0,0.0,0.0,0.0,0.0,-0.167367740436,-0.180581364547,9.85951248317,-1.0,0.0,0.0,0.0,0.0,0.0,0.0,0.0,0.0
1596620938297247559,1973,1596620938296788962,xsense,-0.0124976618125,0.00298713450601,0.5617456773,0.827210178559,-1.0,0.0,0.0,0.0,0.0,0.0,0.0,0.0,0.0,0.00158993513173,0.00463302870047,-0.00294191869297,-1.0,0.0,0.0,0.0,0.0,0.0,0.0,0.0,0.0,-0.19080365567,-0.156505623123,9.83349907324,-1.0,0.0,0.0,0.0,0.0,0.0,0.0,0.0,0.0
1596620938316239079,1974,1596620938315724940,xsense,-0.0125036264377,0.00297517313056,0.561756645954,0.82720268278,-1.0,0.0,0.0,0.0,0.0,0.0,0.0,0.0,0.0,-0.00315877515442,0.00299709155989,0.0014191375728,-1.0,0.0,0.0,0.0,0.0,0.0,0.0,0.0,0.0,-0.211972732036,-0.205554392186,9.80618188993,-1.0,0.0,0.0,0.0,0.0,0.0,0.0,0.0,0.0
1596620938318943214,1975,1596620938318497765,xsense,-0.0124955124422,0.00297291423487,0.561749973019,0.827207345085,-1.0,0.0,0.0,0.0,0.0,0.0,0.0,0.0,0.0,8.77100917249e-05,0.00308517635356,-0.00302178629826,-1.0,0.0,0.0,0.0,0.0,0.0,0.0,0.0,0.0,-0.164349572723,-0.179976188195,9.8108492526,-1.0,0.0,0.0,0.0,0.0,0.0,0.0,0.0,0.0
1596620938335937449,1976,1596620938335426535,xsense,-0.0124995092591,0.00297087203484,0.561755486996,0.827203547513,-1.0,0.0,0.0,0.0,0.0,0.0,0.0,0.0,0.0,-0.00159062571611,0.00456046279121,-2.5455647934e-05,-1.0,0.0,0.0,0.0,0.0,0.0,0.0,0.0,0.0,-0.191142897572,-0.181213513067,9.8330378865,-1.0,0.0,0.0,0.0,0.0,0.0,0.0,0.0,0.0
1596620938337932166,1977,1596620938337303767,xsense,-0.0124916020184,0.00296845874806,0.561755121578,0.827203923778,-1.0,0.0,0.0,0.0,0.0,0.0,0.0,0.0,0.0,2.18002622777e-05,0.00306969993319,-0.00149723751002,-1.0,0.0,0.0,0.0,0.0,0.0,0.0,0.0,0.0,-0.188701071408,-0.205196358423,9.8082753387,-1.0,0.0,0.0,0.0,0.0,0.0,0.0,0.0,0.0
1596620938356139655,1978,1596620938355561760,xsense,-0.0124841946637,0.0029653617202,0.561755626556,0.827203703779,-1.0,0.0,0.0,0.0,0.0,0.0,0.0,0.0,0.0,2.17997045391e-05,0.00306970246662,-0.00149723833148,-1.0,0.0,0.0,0.0,0.0,0.0,0.0,0.0,0.0,-0.215421601684,-0.206358908709,9.8304640343,-1.0,0.0,0.0,0.0,0.0,0.0,0.0,0.0,0.0
1596620938357678911,1979,1596620938357288280,xsense,-0.0124933693135,0.00296030480473,0.561761028133,0.827199915129,-1.0,0.0,0.0,0.0,0.0,0.0,0.0,0.0,0.0,-0.00311505515222,0.00453960555599,-9.19433956433e-05,-1.0,0.0,0.0,0.0,0.0,0.0,0.0,0.0,0.0,-0.168582938004,-0.156380204631,9.83557378364,-1.0,0.0,0.0,0.0,0.0,0.0,0.0,0.0,0.0
1596620938375743514,1980,1596620938375201977,xsense,-0.0124989794387,0.00297605491033,0.561761739435,0.82719929081,-1.0,0.0,0.0,0.0,0.0,0.0,0.0,0.0,0.0,-4.45099606031e-05,0.00765103350221,-0.00145619939003,-1.0,0.0,0.0,0.0,0.0,0.0,0.0,0.0,0.0,-0.190673926507,-0.181106752177,9.80868118303,-1.0,0.0,0.0,0.0,0.0,0.0,0.0,0.0,0.0
1596620938377184417,1981,1596620938376998742,xsense,-0.0124910719559,0.00297364170469,0.561761374197,0.827199666971,-1.0,0.0,0.0,0.0,0.0,0.0,0.0,0.0,0.0,2.18647443345e-05,0.00306973744947,-0.0014971921234,-1.0,0.0,0.0,0.0,0.0,0.0,0.0,0.0,0.0,-0.192603376555,-0.206007131481,9.83255150295,-1.0,0.0,0.0,0.0,0.0,0.0,0.0,0.0,0.0
1596620938396935258,1982,1596620938396337768,xsense,-0.0124840637605,0.00297049347066,0.561761288648,0.827199842177,-1.0,0.0,0.0,0.0,0.0,0.0,0.0,0.0,0.0,2.18641856974e-05,0.00306973998828,-0.00149719294621,-1.0,0.0,0.0,0.0,0.0,0.0,0.0,0.0,0.0,-0.193609937352,-0.181607975444,9.83298234241,-1.0,0.0,0.0,0.0,0.0,0.0,0.0,0.0,0.0
1596620938398268905,1983,1596620938397892093,xsense,-0.0124824035812,0.0029637079579,0.561760671922,0.827200310395,-1.0,0.0,0.0,0.0,0.0,0.0,0.0,0.0,0.0,-0.00150248939906,0.00304886488799,-0.00156376827748,-1.0,0.0,0.0,0.0,0.0,0.0,0.0,0.0,0.0,-0.19531502978,-0.206580397888,9.85685538231,-1.0,0.0,0.0,0.0,0.0,0.0,0.0,0.0,0.0
1596620938400972757,1984,1596620938400473480,xsense,-0.0124793992697,0.00296756591224,0.561754654578,0.827204428304,-1.0,0.0,0.0,0.0,0.0,0.0,0.0,0.0,0.0,6.58851924996e-05,0.00461240998754,-0.00300801517268,-1.0,0.0,0.0,0.0,0.0,0.0,0.0,0.0,0.0,-0.167143698958,-0.204993576416,9.81034158125,-1.0,0.0,0.0,0.0,0.0,0.0,0.0,0.0,0.0
1596620938417940162,1985,1596620938417756138,xsense,-0.0124716998733,0.00296499743122,0.561760596669,0.827200518328,-1.0,0.0,0.0,0.0,0.0,0.0,0.0,0.0,0.0,-4.43706230101e-05,0.0030542109084,2.73417081091e-05,-1.0,0.0,0.0,0.0,0.0,0.0,0.0,0.0,0.0,-0.193246766693,-0.156863758357,9.80907886644,-1.0,0.0,0.0,0.0,0.0,0.0,0.0,0.0,0.0
1596620938420809050,1986,1596620938420343506,xsense,-0.012469422884,0.00296810711511,0.561759122272,0.82720154278,-1.0,0.0,0.0,0.0,0.0,0.0,0.0,0.0,0.0,-3.13513668182e-07,0.00459686998793,-0.00148350239313,-1.0,0.0,0.0,0.0,0.0,0.0,0.0,0.0,0.0,-0.194320200914,-0.206164101354,9.83251443372,-1.0,0.0,0.0,0.0,0.0,0.0,0.0,0.0,0.0
1596620938447085608,1987,1596620938446562687,xsense,-0.012461723992,0.0029655383404,0.561765064234,0.827197632748,-1.0,0.0,0.0,0.0,0.0,0.0,0.0,0.0,0.0,-4.43950242197e-05,0.00305421566604,2.73390431877e-05,-1.0,0.0,0.0,0.0,0.0,0.0,0.0,0.0,0.0,-0.195404388747,-0.181767877585,9.83294389155,-1.0,0.0,0.0,0.0,0.0,0.0,0.0,0.0,0.0
1596620938448208982,1988,1596620938447836297,xsense,-0.0124817461137,0.00296251773016,0.56175942283,0.82720117285,-1.0,0.0,0.0,0.0,0.0,0.0,0.0,0.0,0.0,-0.00452922830113,0.00607677469301,-0.00319449169806,-1.0,0.0,0.0,0.0,0.0,0.0,0.0,0.0,0.0,-0.193020432721,-0.205897985584,9.80817658539,-1.0,0.0,0.0,0.0,0.0,0.0,0.0,0.0,0.0
1596620938466520993,1989,1596620938466233013,xsense,-0.0124738395186,0.0029601047387,0.561759057834,0.827201548626,-1.0,0.0,0.0,0.0,0.0,0.0,0.0,0.0,0.0,2.19012199945e-05,0.00306980819428,-0.00149710442919,-1.0,0.0,0.0,0.0,0.0,0.0,0.0,0.0,0.0,-0.174105635539,-0.182050651098,9.8593687802,-1.0,0.0,0.0,0.0,0.0,0.0,0.0,0.0,0.0
1596620938467928415,1990,1596620938467298287,xsense,-0.0124652843053,0.00296777779727,0.56176566415,0.827197163658,-1.0,0.0,0.0,0.0,0.0,0.0,0.0,0.0,0.0,0.00145763833125,0.00460228959341,0.00010788988483,-1.0,0.0,0.0,0.0,0.0,0.0,0.0,0.0,0.0,-0.218860970833,-0.182322397313,9.80645964054,-1.0,0.0,0.0,0.0,0.0,0.0,0.0,0.0,0.0
1596620938486492399,1991,1596620938486278301,xsense,-0.0124677974894,0.00296740294299,0.561758700925,0.827201855946,-1.0,0.0,0.0,0.0,0.0,0.0,0.0,0.0,0.0,-0.00145823495206,0.00459153905401,-0.00307476636603,-1.0,0.0,0.0,0.0,0.0,0.0,0.0,0.0,0.0,-0.197121084909,-0.182153612247,9.83290248915,-1.0,0.0,0.0,0.0,0.0,0.0,0.0,0.0,0.0
1596620938486869125,1992,1596620938486657920,xsense,-0.0124668492586,0.00295969197949,0.561759739163,0.827201192787,-1.0,0.0,0.0,0.0,0.0,0.0,0.0,0.0,0.0,-0.00150241742717,0.00304884051668,-0.00156396212479,-1.0,0.0,0.0,0.0,0.0,0.0,0.0,0.0,0.0,-0.175305532129,-0.182131559067,9.85934602411,-1.0,0.0,0.0,0.0,0.0,0.0,0.0,0.0,0.0
1596620938496894135,1993,1596620938496559549,xsense,-0.0124697795231,0.00295900457028,0.561765390563,0.827197313134,-1.0,0.0,0.0,0.0,0.0,0.0,0.0,0.0,0.0,-0.00159115246141,0.0045603558195,-2.5748206126e-05,-1.0,0.0,0.0,0.0,0.0,0.0,0.0,0.0,0.0,-0.194326990494,-0.15705980175,9.78468777251,-1.0,0.0,0.0,0.0,0.0,0.0,0.0,0.0,0.0
1596620938497691988,1994,1596620938497449350,xsense,-0.0124628286222,0.00295554924697,0.561765589092,0.827197295416,-1.0,0.0,0.0,0.0,0.0,0.0,0.0,0.0,0.0,2.19536958425e-05,0.0030698471582,-0.00149706005715,-1.0,0.0,0.0,0.0,0.0,0.0,0.0,0.0,0.0,-0.198238890688,-0.182536069097,9.83287292384,-1.0,0.0,0.0,0.0,0.0,0.0,0.0,0.0,0.0
1596620938525536668,1995,1596620938525153283,xsense,-0.012467624553,0.00294423427377,0.561771025367,0.82719357159,-1.0,0.0,0.0,0.0,0.0,0.0,0.0,0.0,0.0,-0.00309324017039,0.00301223581891,-0.000106434008337,-1.0,0.0,0.0,0.0,0.0,0.0,0.0,0.0,0.0,-0.198536448817,-0.182688657099,9.83286408689,-1.0,0.0,0.0,0.0,0.0,0.0,0.0,0.0,0.0
1596620938527707936,1996,1596620938527337175,xsense,-0.0124734773352,0.00296008326249,0.561771117841,0.827193363991,-1.0,0.0,0.0,0.0,0.0,0.0,0.0,0.0,0.0,-4.48826795353e-05,0.00765123163315,-0.00145578404044,-1.0,0.0,0.0,0.0,0.0,0.0,0.0,0.0,0.0,-0.174748575921,-0.182173117277,9.8349919418,-1.0,0.0,0.0,0.0,0.0,0.0,0.0,0.0,0.0
1596620938546500189,1997,1596620938546090623,xsense,-0.0124655711636,0.00295767021306,0.561770753148,0.827193739477,-1.0,0.0,0.0,0.0,0.0,0.0,0.0,0.0,0.0,2.20072854031e-05,0.00306988104198,-0.00149701403111,-1.0,0.0,0.0,0.0,0.0,0.0,0.0,0.0,0.0,-0.175273096265,-0.182176827158,9.83498253739,-1.0,0.0,0.0,0.0,0.0,0.0,0.0,0.0,0.0
1596620938548137457,1998,1596620938547835088,xsense,-0.0124476991471,0.00295283219403,0.561764318805,0.827198395601,-1.0,0.0,0.0,0.0,0.0,0.0,0.0,0.0,0.0,0.00163527235515,0.00157942576593,-0.00296821142089,-1.0,0.0,0.0,0.0,0.0,0.0,0.0,0.0,0.0,-0.176914023148,-0.206998742447,9.85885677691,-1.0,0.0,0.0,0.0,0.0,0.0,0.0,0.0,0.0
1596620938565778785,1999,1596620938565395356,xsense,-0.0124550121651,0.00295839762369,0.561769931718,0.827194453785,-1.0,0.0,0.0,0.0,0.0,0.0,0.0,0.0,0.0,-0.00161365932735,0.00608744261085,-1.21407606925e-05,-1.0,0.0,0.0,0.0,0.0,0.0,0.0,0.0,0.0,-0.198051632011,-0.182273619335,9.80851337442,-1.0,0.0,0.0,0.0,0.0,0.0,0.0,0.0,0.0
1596620938567631868,2000,1596620938567069780,xsense,-0.0124588608336,0.00295725158041,0.561768513486,0.827195363083,-1.0,0.0,0.0,0.0,0.0,0.0,0.0,0.0,0.0,-0.0015246447618,0.00457597063358,-0.00155037835388,-1.0,0.0,0.0,0.0,0.0,0.0,0.0,0.0,0.0,-0.199287229002,-0.158029417377,9.80893929405,-1.0,0.0,0.0,0.0,0.0,0.0,0.0,0.0,0.0
1596620938586142980,2001,1596620938585641452,xsense,-0.0124511646258,0.00295468113143,0.56177445598,0.827191452426,-1.0,0.0,0.0,0.0,0.0,0.0,0.0,0.0,0.0,-4.46911007829e-05,0.00305424872307,2.75004945778e-05,-1.0,0.0,0.0,0.0,0.0,0.0,0.0,0.0,0.0,-0.176054473857,-0.206734672413,9.83451331837,-1.0,0.0,0.0,0.0,0.0,0.0,0.0,0.0,0.0
1596620938587806922,2002,1596620938587312294,xsense,-0.0124596918007,0.00295976649051,0.561773102976,0.827192224719,-1.0,0.0,0.0,0.0,0.0,0.0,0.0,0.0,0.0,-0.00154696842653,0.00610310656878,-0.00153665393854,-1.0,0.0,0.0,0.0,0.0,0.0,0.0,0.0,0.0,-0.199393704923,-0.182587119107,9.80848035282,-1.0,0.0,0.0,0.0,0.0,0.0,0.0,0.0,0.0
1596620938605928176,2003,1596620938605377248,xsense,-0.0124455401604,0.0029617262489,0.56177299235,0.827192505874,-1.0,0.0,0.0,0.0,0.0,0.0,0.0,0.0,0.0,0.00154639432224,0.0030909887256,-0.00142976377262,-1.0,0.0,0.0,0.0,0.0,0.0,0.0,0.0,0.0,-0.201977088413,-0.183090794167,9.83278653432,-1.0,0.0,0.0,0.0,0.0,0.0,0.0,0.0,0.0
1596620938607449885,2004,1596620938607062684,xsense,-0.012457752223,0.00294532136252,0.561778182324,0.827188855919,-1.0,0.0,0.0,0.0,0.0,0.0,0.0,0.0,0.0,-0.00461770741926,0.00299102883754,-0.000174194526388,-1.0,0.0,0.0,0.0,0.0,0.0,0.0,0.0,0.0,-0.202274636231,-0.183243412613,9.83277757558,-1.0,0.0,0.0,0.0,0.0,0.0,0.0,0.0,0.0
1596620938627136195,2005,1596620938626587302,xsense,-0.0124477729664,0.00295369304357,0.561771727266,0.827193360158,-1.0,0.0,0.0,0.0,0.0,0.0,0.0,0.0,0.0,0.00159087391939,0.00463385074323,-0.00294037734404,-1.0,0.0,0.0,0.0,0.0,0.0,0.0,0.0,0.0,-0.202646647972,-0.183395376817,9.83276708225,-1.0,0.0,0.0,0.0,0.0,0.0,0.0,0.0,0.0
1596620938628801128,2006,1596620938628440420,xsense,-0.0124512859014,0.00295240015895,0.561776750342,0.82718990056,-1.0,0.0,0.0,0.0,0.0,0.0,0.0,0.0,0.0,-0.0015915038534,0.0045602931798,-2.59809900983e-05,-1.0,0.0,0.0,0.0,0.0,0.0,0.0,0.0,0.0,-0.200957990716,-0.182896906617,9.80844265579,-1.0,0.0,0.0,0.0,0.0,0.0,0.0,0.0,0.0
1596620938629919022,2007,1596620938629384428,xsense,-0.0124540091528,0.00295186794246,0.561776093443,0.827190307588,-1.0,0.0,0.0,0.0,0.0,0.0,0.0,0.0,0.0,-0.00152460188379,0.00457599430318,-0.00155046888455,-1.0,0.0,0.0,0.0,0.0,0.0,0.0,0.0,0.0,-0.152069300797,-0.206101822222,9.8122949884,-1.0,0.0,0.0,0.0,0.0,0.0,0.0,0.0,0.0
1596620938647696125,2008,1596620938647211251,xsense,-0.0124573125324,0.00295073039514,0.561774818982,0.827191127438,-1.0,0.0,0.0,0.0,0.0,0.0,0.0,0.0,0.0,-0.00152460312577,0.0045759999573,-0.00155047071665,-1.0,0.0,0.0,0.0,0.0,0.0,0.0,0.0,0.0,-0.20185060564,-0.183203979238,9.80841859625,-1.0,0.0,0.0,0.0,0.0,0.0,0.0,0.0,0.0
1596620938649108879,2009,1596620938648686445,xsense,-0.0124602462161,0.00295003987398,0.561780469209,0.827187248418,-1.0,0.0,0.0,0.0,0.0,0.0,0.0,0.0,0.0,-0.00159157675722,0.00456028431888,-2.59892889505e-05,-1.0,0.0,0.0,0.0,0.0,0.0,0.0,0.0,0.0,-0.226606640973,-0.184033433548,9.8062517502,-1.0,0.0,0.0,0.0,0.0,0.0,0.0,0.0,0.0
1596620938675347321,2010,1596620938674877068,xsense,-0.0124676686765,0.00295553763768,0.561780248587,0.827187266786,-1.0,0.0,0.0,0.0,0.0,0.0,0.0,0.0,0.0,-0.00154699231847,0.00610315971517,-0.00153666011745,-1.0,0.0,0.0,0.0,0.0,0.0,0.0,0.0,0.0,-0.175650005676,-0.206735141134,9.7857925479,-1.0,0.0,0.0,0.0,0.0,0.0,0.0,0.0,0.0
1596620938676961029,2011,1596620938676547642,xsense,-0.0124578996026,0.00296375202586,0.561780102042,0.827187484106,-1.0,0.0,0.0,0.0,0.0,0.0,0.0,0.0,0.0,0.00152406317238,0.00461828803553,-0.00141553391298,-1.0,0.0,0.0,0.0,0.0,0.0,0.0,0.0,0.0,-0.179032665653,-0.182842469775,9.81053929277,-1.0,0.0,0.0,0.0,0.0,0.0,0.0,0.0,0.0
1596620938696358550,2012,1596620938695991548,xsense,-0.0124466067415,0.00295477197201,0.56177979255,0.827187896421,-1.0,0.0,0.0,0.0,0.0,0.0,0.0,0.0,0.0,4.46430988498e-05,0.00154287417284,-0.00151066759409,-1.0,0.0,0.0,0.0,0.0,0.0,0.0,0.0,0.0,-0.182903794433,-0.208173618488,9.85872273386,-1.0,0.0,0.0,0.0,0.0,0.0,0.0,0.0,0.0
1596620938698049290,2013,1596620938697543162,xsense,-0.0124382802764,0.00295267650983,0.561766813919,0.82719684336,-1.0,0.0,0.0,0.0,0.0,0.0,0.0,0.0,0.0,0.000156385233546,0.00310148877691,-0.0045458145212,-1.0,0.0,0.0,0.0,0.0,0.0,0.0,0.0,0.0,-0.183844806906,-0.183769752134,9.85916009206,-1.0,0.0,0.0,0.0,0.0,0.0,0.0,0.0,0.0
1596620938715819223,2014,1596620938715455584,xsense,-0.012452682132,0.00295299667765,0.561778630083,0.827188600804,-1.0,0.0,0.0,0.0,0.0,0.0,0.0,0.0,0.0,-0.00320570805655,0.00605045040163,0.00144461613377,-1.0,0.0,0.0,0.0,0.0,0.0,0.0,0.0,0.0,-0.180000589921,-0.182916077639,9.81052021017,-1.0,0.0,0.0,0.0,0.0,0.0,0.0,0.0,0.0
1596620938717864575,2015,1596620938717455753,xsense,-0.012442913728,0.00296121107318,0.561778484163,0.827188817537,-1.0,0.0,0.0,0.0,0.0,0.0,0.0,0.0,0.0,0.00152402863548,0.00461836145125,-0.00141538854614,-1.0,0.0,0.0,0.0,0.0,0.0,0.0,0.0,0.0,-0.206261508882,-0.208578633082,9.83222025853,-1.0,0.0,0.0,0.0,0.0,0.0,0.0,0.0,0.0
1596620938735613247,2016,1596620938735060718,xsense,-0.0124465699643,0.00295966989154,0.56177808345,0.827189040187,-1.0,0.0,0.0,0.0,0.0,0.0,0.0,0.0,0.0,-0.00152458091437,0.00457599600463,-0.00155064630808,-1.0,0.0,0.0,0.0,0.0,0.0,0.0,0.0,0.0,-0.183840089422,-0.159105442417,9.83525672785,-1.0,0.0,0.0,0.0,0.0,0.0,0.0,0.0,0.0
1596620938737302412,2017,1596620938736790414,xsense,-0.012449293686,0.00295913708531,0.561777425818,0.82718944773,-1.0,0.0,0.0,0.0,0.0,0.0,0.0,0.0,0.0,-0.00152458216031,0.00457600168441,-0.00155064814808,-1.0,0.0,0.0,0.0,0.0,0.0,0.0,0.0,0.0,-0.210026457345,-0.184839444679,9.85695433079,-1.0,0.0,0.0,0.0,0.0,0.0,0.0,0.0,0.0
1596620938756613854,2018,1596620938755971251,xsense,-0.0124423851667,0.00295556183214,0.561778442776,0.8271888738,-1.0,0.0,0.0,0.0,0.0,0.0,0.0,0.0,0.0,2.22363477788e-05,0.00307006775116,-0.00149679111314,-1.0,0.0,0.0,0.0,0.0,0.0,0.0,0.0,0.0,-0.183941292122,-0.183734368503,9.83479526214,-1.0,0.0,0.0,0.0,0.0,0.0,0.0,0.0,0.0
1596620938758440490,2019,1596620938757986237,xsense,-0.0124511435187,0.00295081442336,0.561771221629,0.827193663097,-1.0,0.0,0.0,0.0,0.0,0.0,0.0,0.0,0.0,-0.00298159801747,0.00457055931411,-0.00314286716899,-1.0,0.0,0.0,0.0,0.0,0.0,0.0,0.0,0.0,-0.210772750004,-0.185067427281,9.85693412339,-1.0,0.0,0.0,0.0,0.0,0.0,0.0,0.0,0.0
1596620938776687768,2020,1596620938776030948,xsense,-0.0124480413506,0.00295397026362,0.561772789418,0.82719263379,-1.0,0.0,0.0,0.0,0.0,0.0,0.0,0.0,0.0,-3.34434052012e-07,0.0045972454841,-0.00148288653774,-1.0,0.0,0.0,0.0,0.0,0.0,0.0,0.0,0.0,-0.182606595899,-0.183529964486,9.8104605835,-1.0,0.0,0.0,0.0,0.0,0.0,0.0,0.0,0.0
1596620938779665462,2021,1596620938779208521,xsense,-0.0124292969007,0.00294983629698,0.561766412297,0.827197261274,-1.0,0.0,0.0,0.0,0.0,0.0,0.0,0.0,0.0,0.00163646087391,0.00158000724579,-0.00296728234759,-1.0,0.0,0.0,0.0,0.0,0.0,0.0,0.0,0.0,-0.208645476431,-0.209037766043,9.83216020674,-1.0,0.0,0.0,0.0,0.0,0.0,0.0,0.0,0.0
1596620938780880919,2022,1596620938780551405,xsense,-0.0124437816597,0.00295016633923,0.561780143537,0.827187716993,-1.0,0.0,0.0,0.0,0.0,0.0,0.0,0.0,0.0,-0.00320632890039,0.00605025717961,0.00144424533297,-1.0,0.0,0.0,0.0,0.0,0.0,0.0,0.0,0.0,-0.21189526627,-0.18522231955,9.85690714779,-1.0,0.0,0.0,0.0,0.0,0.0,0.0,0.0,0.0
1596620938799195097,2023,1596620938798745305,xsense,-0.0124465058198,0.00294963267373,0.561779485658,0.827188124705,-1.0,0.0,0.0,0.0,0.0,0.0,0.0,0.0,0.0,-0.00152460962742,0.0045760085177,-0.00155070569291,-1.0,0.0,0.0,0.0,0.0,0.0,0.0,0.0,0.0,-0.180200019861,-0.232057315964,9.78523344713,-1.0,0.0,0.0,0.0,0.0,0.0,0.0,0.0,0.0
1596620938800243585,2024,1596620938799860860,xsense,-0.0124391932353,0.00294662160954,0.561778521297,0.827188900374,-1.0,0.0,0.0,0.0,0.0,0.0,0.0,0.0,0.0,2.22738001526e-05,0.00307013374255,-0.00149670183451,-1.0,0.0,0.0,0.0,0.0,0.0,0.0,0.0,0.0,-0.207757385442,-0.208920323493,9.80781157684,-1.0,0.0,0.0,0.0,0.0,0.0,0.0,0.0,0.0
1596620938827544695,2025,1596620938827092207,xsense,-0.0124358840647,0.00295030136758,0.561784427446,0.827184925871,-1.0,0.0,0.0,0.0,0.0,0.0,0.0,0.0,0.0,-6.78126929003e-05,0.00458146100052,4.16390386974e-05,-1.0,0.0,0.0,0.0,0.0,0.0,0.0,0.0,0.0,-0.190295835932,-0.209761650198,9.88291460249,-1.0,0.0,0.0,0.0,0.0,0.0,0.0,0.0,0.0
1596620938828576738,2026,1596620938828026648,xsense,-0.0124343890014,0.00294267667387,0.561785223479,0.827184434878,-1.0,0.0,0.0,0.0,0.0,0.0,0.0,0.0,0.0,-0.00150198197582,0.00304885603158,-0.00156464652207,-1.0,0.0,0.0,0.0,0.0,0.0,0.0,0.0,0.0,-0.184918680385,-0.183922816639,9.81040991746,-1.0,0.0,0.0,0.0,0.0,0.0,0.0,0.0,0.0
1596620938846724791,2027,1596620938846156315,xsense,-0.0124202389329,0.00294463690578,0.561785117245,0.827184712637,-1.0,0.0,0.0,0.0,0.0,0.0,0.0,0.0,0.0,0.0015465939497,0.00309144928495,-0.0014287117866,-1.0,0.0,0.0,0.0,0.0,0.0,0.0,0.0,0.0,-0.187376301222,-0.184429601189,9.83471740373,-1.0,0.0,0.0,0.0,0.0,0.0,0.0,0.0,0.0
1596620938848822478,2028,1596620938847661437,xsense,-0.0124156461407,0.00295880138771,0.561777798992,0.827189701208,-1.0,0.0,0.0,0.0,0.0,0.0,0.0,0.0,0.0,0.00156889903665,0.00616160012419,-0.00292541744761,-1.0,0.0,0.0,0.0,0.0,0.0,0.0,0.0,0.0,-0.187827293405,-0.184280484944,9.83471159722,-1.0,0.0,0.0,0.0,0.0,0.0,0.0,0.0,0.0
1596620938866035009,2029,1596620938865797473,xsense,-0.0124398401623,0.00296186529302,0.561782857939,0.827185890992,-1.0,0.0,0.0,0.0,0.0,0.0,0.0,0.0,0.0,-0.00468611213048,0.00757180796418,-0.000134794189,-1.0,0.0,0.0,0.0,0.0,0.0,0.0,0.0,0.0,-0.187775743934,-0.208835935946,9.83425210629,-1.0,0.0,0.0,0.0,0.0,0.0,0.0,0.0,0.0
1596620938866728110,2030,1596620938866515633,xsense,-0.0124327150833,0.00295887032088,0.561782700167,0.827186115983,-1.0,0.0,0.0,0.0,0.0,0.0,0.0,0.0,0.0,2.23598597187e-05,0.0030701791903,-0.00149665779395,-1.0,0.0,0.0,0.0,0.0,0.0,0.0,0.0,0.0,-0.18685834629,-0.184160652223,9.81036870257,-1.0,0.0,0.0,0.0,0.0,0.0,0.0,0.0,0.0
1596620938885482610,2031,1596620938885330509,xsense,-0.0124356522814,0.00295817507698,0.561788348614,0.827182238152,-1.0,0.0,0.0,0.0,0.0,0.0,0.0,0.0,0.0,-0.00159227763779,0.00456014645599,-2.64278844025e-05,-1.0,0.0,0.0,0.0,0.0,0.0,0.0,0.0,0.0,-0.192284038757,-0.160853969483,9.8594298447,-1.0,0.0,0.0,0.0,0.0,0.0,0.0,0.0,0.0
1596620938886076699,2032,1596620938885943302,xsense,-0.0124327396641,0.00296220712199,0.561786394659,0.827183594548,-1.0,0.0,0.0,0.0,0.0,0.0,0.0,0.0,0.0,-2.741725406e-07,0.00459736074073,-0.00148272638108,-1.0,0.0,0.0,0.0,0.0,0.0,0.0,0.0,0.0,-0.187679026365,-0.184318615866,9.81035007061,-1.0,0.0,0.0,0.0,0.0,0.0,0.0,0.0,0.0
1596620938905761454,2033,1596620938905614131,xsense,-0.0124354639611,0.00296167323348,0.561785735935,0.827184002884,-1.0,0.0,0.0,0.0,0.0,0.0,0.0,0.0,0.0,-0.0015245532134,0.00457601612614,-0.00155091811702,-1.0,0.0,0.0,0.0,0.0,0.0,0.0,0.0,0.0,-0.191733900465,-0.20981050906,9.85852025789,-1.0,0.0,0.0,0.0,0.0,0.0,0.0,0.0,0.0
1596620938906156922,2034,1596620938906033929,xsense,-0.0124408236613,0.00294962731754,0.5617791745,0.827188421524,-1.0,0.0,0.0,0.0,0.0,0.0,0.0,0.0,0.0,-0.00295834556857,0.00304337996572,-0.00315751240294,-1.0,0.0,0.0,0.0,0.0,0.0,0.0,0.0,0.0,-0.189937238483,-0.209527902622,9.83419587573,-1.0,0.0,0.0,0.0,0.0,0.0,0.0,0.0,0.0
1596620938926364595,2035,1596620938925954571,xsense,-0.0124333464188,0.00294689091296,0.561791425327,0.827180223506,-1.0,0.0,0.0,0.0,0.0,0.0,0.0,0.0,0.0,-0.000113247992379,0.00303842416733,0.00155232796097,-1.0,0.0,0.0,0.0,0.0,0.0,0.0,0.0,0.0,-0.190960476275,-0.185281259087,9.8346324546,-1.0,0.0,0.0,0.0,0.0,0.0,0.0,0.0,0.0
1596620938928187221,2036,1596620938927573292,xsense,-0.0124316058729,0.00293969637407,0.561785989902,0.827183966788,-1.0,0.0,0.0,0.0,0.0,0.0,0.0,0.0,0.0,-0.00143400119228,0.00306478223007,-0.00308928554177,-1.0,0.0,0.0,0.0,0.0,0.0,0.0,0.0,0.0,-0.188364319927,-0.209249309269,9.80986722261,-1.0,0.0,0.0,0.0,0.0,0.0,0.0,0.0,0.0
1596620938946964482,2037,1596620938946478483,xsense,-0.0124324687334,0.00294978950826,0.561785553069,0.827184214565,-1.0,0.0,0.0,0.0,0.0,0.0,0.0,0.0,0.0,-2.30489554401e-05,0.00612459617622,-0.00146864461614,-1.0,0.0,0.0,0.0,0.0,0.0,0.0,0.0,0.0,-0.190263581368,-0.160526727994,9.81074881321,-1.0,0.0,0.0,0.0,0.0,0.0,0.0,0.0,0.0
1596620938948552900,2038,1596620938948199628,xsense,-0.0124446803018,0.00296183675933,0.56177700117,0.827189795882,-1.0,0.0,0.0,0.0,0.0,0.0,0.0,0.0,0.0,-0.00150215236939,0.00764629587963,-0.00304748563787,-1.0,0.0,0.0,0.0,0.0,0.0,0.0,0.0,0.0,-0.216686198261,-0.186198674795,9.83241502362,-1.0,0.0,0.0,0.0,0.0,0.0,0.0,0.0,0.0
1596620938949541051,2039,1596620938949041236,xsense,-0.0124432352532,0.00295488721961,0.561782686165,0.827185981544,-1.0,0.0,0.0,0.0,0.0,0.0,0.0,0.0,0.0,-0.00156979684748,0.00303291766609,-4.04831032477e-05,-1.0,0.0,0.0,0.0,0.0,0.0,0.0,0.0,0.0,-0.217208334469,-0.186353047538,9.83240057635,-1.0,0.0,0.0,0.0,0.0,0.0,0.0,0.0,0.0
1596620938975476219,2040,1596620938974915025,xsense,-0.0124295053187,0.00295603238613,0.561783793525,0.827185431813,-1.0,0.0,0.0,0.0,0.0,0.0,0.0,0.0,0.0,0.00154672728567,0.00309172106003,-0.00142807526554,-1.0,0.0,0.0,0.0,0.0,0.0,0.0,0.0,0.0,-0.188126877017,-0.209050706563,9.78551144252,-1.0,0.0,0.0,0.0,0.0,0.0,0.0,0.0,0.0
1596620938976826400,2041,1596620938976521477,xsense,-0.0124322299696,0.00295549778783,0.561783134404,0.827185840419,-1.0,0.0,0.0,0.0,0.0,0.0,0.0,0.0,0.0,-0.00152458137498,0.00457602286196,-0.0015510143363,-1.0,0.0,0.0,0.0,0.0,0.0,0.0,0.0,0.0,-0.19430433086,-0.161273413693,9.83502025092,-1.0,0.0,0.0,0.0,0.0,0.0,0.0,0.0,0.0
1596620938995782812,2042,1596620938995486624,xsense,-0.012430049129,0.00295918219191,0.561780599186,0.827187581808,-1.0,0.0,0.0,0.0,0.0,0.0,0.0,0.0,0.0,-3.18572796299e-07,0.00459747722306,-0.0014825330701,-1.0,0.0,0.0,0.0,0.0,0.0,0.0,0.0,0.0,-0.195471404238,-0.210659388504,9.85842875735,-1.0,0.0,0.0,0.0,0.0,0.0,0.0,0.0,0.0
1596620938997566997,2043,1596620938997172374,xsense,-0.0124242208899,0.00294597894495,0.561786320385,0.827183830942,-1.0,0.0,0.0,0.0,0.0,0.0,0.0,0.0,0.0,-0.00154706331902,0.00150571659128,-5.45506300683e-05,-1.0,0.0,0.0,0.0,0.0,0.0,0.0,0.0,0.0,-0.195051875965,-0.161428941774,9.8350029014,-1.0,0.0,0.0,0.0,0.0,0.0,0.0,0.0,0.0
1596620939015910064,2044,1596620939015497820,xsense,-0.0124337220729,0.00294126202959,0.561771648767,0.827193669085,-1.0,0.0,0.0,0.0,0.0,0.0,0.0,0.0,0.0,-0.0029126443143,0.00458650540641,-0.00466843281341,-1.0,0.0,0.0,0.0,0.0,0.0,0.0,0.0,0.0,-0.16958301344,-0.209764545936,9.83629003802,-1.0,0.0,0.0,0.0,0.0,0.0,0.0,0.0,0.0
1596620939017561137,2045,1596620939017142955,xsense,-0.0124278944028,0.002928058611,0.561777369924,0.827189918069,-1.0,0.0,0.0,0.0,0.0,0.0,0.0,0.0,0.0,-0.00154709801685,0.00150568493425,-5.45653672191e-05,-1.0,0.0,0.0,0.0,0.0,0.0,0.0,0.0,0.0,-0.214863611585,-0.185940350869,9.78372164971,-1.0,0.0,0.0,0.0,0.0,0.0,0.0,0.0,0.0
1596620939035331295,2046,1596620939034973603,xsense,-0.0124292575592,0.00293652249672,0.561791382315,0.827180351041,-1.0,0.0,0.0,0.0,0.0,0.0,0.0,0.0,0.0,-0.000159495896961,0.00609271591922,0.00158047988278,-1.0,0.0,0.0,0.0,0.0,0.0,0.0,0.0,0.0,-0.19455868119,-0.210757293447,9.83407926129,-1.0,0.0,0.0,0.0,0.0,0.0,0.0,0.0,0.0
1596620939037075199,2047,1596620939036580067,xsense,-0.0124380127984,0.00293177605701,0.561784156039,0.827185144058,-1.0,0.0,0.0,0.0,0.0,0.0,0.0,0.0,0.0,-0.00298062332725,0.00457058474868,-0.00314407804648,-1.0,0.0,0.0,0.0,0.0,0.0,0.0,0.0,0.0,-0.191451335445,-0.185490568134,9.78589146244,-1.0,0.0,0.0,0.0,0.0,0.0,0.0,0.0,0.0
1596620939056707358,2048,1596620939056199252,xsense,-0.0124354322022,0.00293518816803,0.561789991713,0.82718120742,-1.0,0.0,0.0,0.0,0.0,0.0,0.0,0.0,0.0,-6.85565501491e-05,0.00458154583352,4.2099277668e-05,-1.0,0.0,0.0,0.0,0.0,0.0,0.0,0.0,0.0,-0.19334696798,-0.210553961126,9.8097423668,-1.0,0.0,0.0,0.0,0.0,0.0,0.0,0.0,0.0
1596620939058417382,2049,1596620939057854462,xsense,-0.0124319126507,0.00293902825307,0.561789592849,0.827181517581,-1.0,0.0,0.0,0.0,0.0,0.0,0.0,0.0,0.0,-3.00839402377e-07,0.00459757641112,-0.00148233127572,-1.0,0.0,0.0,0.0,0.0,0.0,0.0,0.0,0.0,-0.194526292609,-0.186159727217,9.8101819226,-1.0,0.0,0.0,0.0,0.0,0.0,0.0,0.0,0.0
1596620939076318937,2050,1596620939075732816,xsense,-0.012435966893,0.00293776374314,0.56178820877,0.827182401142,-1.0,0.0,0.0,0.0,0.0,0.0,0.0,0.0,0.0,-0.00152455475559,0.00457606874025,-0.00155106227997,-1.0,0.0,0.0,0.0,0.0,0.0,0.0,0.0,0.0,-0.175034881387,-0.186574599715,9.86099058531,-1.0,0.0,0.0,0.0,0.0,0.0,0.0,0.0,0.0
1596620939078408995,2051,1596620939078084334,xsense,-0.0124278485131,0.0029355142322,0.561781539613,0.827187060517,-1.0,0.0,0.0,0.0,0.0,0.0,0.0,0.0,0.0,9.0898340071e-05,0.00308645155684,-0.00302076790377,-1.0,0.0,0.0,0.0,0.0,0.0,0.0,0.0,0.0,-0.196076621139,-0.161913289419,9.81061156909,-1.0,0.0,0.0,0.0,0.0,0.0,0.0,0.0,0.0
1596620939096298287,2052,1596620939095793271,xsense,-0.0124336086936,0.00295123927299,0.561768377585,0.8271958568,-1.0,0.0,0.0,0.0,0.0,0.0,0.0,0.0,0.0,9.05441295882e-05,0.00768406167726,-0.00450307371685,-1.0,0.0,0.0,0.0,0.0,0.0,0.0,0.0,0.0,-0.173746880179,-0.18613421053,9.83666261134,-1.0,0.0,0.0,0.0,0.0,0.0,0.0,0.0,0.0
1596620939098587785,2053,1596620939098292599,xsense,-0.0124190130806,0.00292552844177,0.561774170684,0.827192233129,-1.0,0.0,0.0,0.0,0.0,0.0,0.0,0.0,0.0,-0.00150131081558,-0.00154876907888,-8.28852684555e-05,-1.0,0.0,0.0,0.0,0.0,0.0,0.0,0.0,0.0,-0.196163000462,-0.186384413286,9.81014506477,-1.0,0.0,0.0,0.0,0.0,0.0,0.0,0.0,0.0
1596620939099734353,2054,1596620939099153477,xsense,-0.0124211983861,0.00293429043001,0.561787646369,0.827183017329,-1.0,0.0,0.0,0.0,0.0,0.0,0.0,0.0,0.0,-0.000160141439561,0.00609270032013,0.00158062382834,-1.0,0.0,0.0,0.0,0.0,0.0,0.0,0.0,0.0,-0.174269246471,-0.186287998489,9.83665045872,-1.0,0.0,0.0,0.0,0.0,0.0,0.0,0.0,0.0
1596620939118131177,2055,1596620939117660691,xsense,-0.0124299534887,0.0029295436937,0.561780418443,0.827187811494,-1.0,0.0,0.0,0.0,0.0,0.0,0.0,0.0,0.0,-0.00298038274764,0.00457054592151,-0.00314445632764,-1.0,0.0,0.0,0.0,0.0,0.0,0.0,0.0,0.0,-0.198363854867,-0.211532485775,9.83398659836,-1.0,0.0,0.0,0.0,0.0,0.0,0.0,0.0,0.0
1596620939120314853,2056,1596620939119771191,xsense,-0.0124378673409,0.00293477003854,0.561775101241,0.827191285137,-1.0,0.0,0.0,0.0,0.0,0.0,0.0,0.0,0.0,-0.00147909111758,0.0061193375322,-0.00306147061616,-1.0,0.0,0.0,0.0,0.0,0.0,0.0,0.0,0.0,-0.196693489315,-0.211243761657,9.80966100752,-1.0,0.0,0.0,0.0,0.0,0.0,0.0,0.0,0.0
1596620939146507499,2057,1596620939145959161,xsense,-0.0124362094962,0.00292798126941,0.561774477838,0.827191757496,-1.0,0.0,0.0,0.0,0.0,0.0,0.0,0.0,0.0,-0.00150166714734,0.00304886659494,-0.00156521868472,-1.0,0.0,0.0,0.0,0.0,0.0,0.0,0.0,0.0,-0.2029883389,-0.163625947873,9.85916965507,-1.0,0.0,0.0,0.0,0.0,0.0,0.0,0.0,0.0
1596620939147325870,2058,1596620939146784736,xsense,-0.0124401802576,0.00292640653297,0.561781425169,0.827186985146,-1.0,0.0,0.0,0.0,0.0,0.0,0.0,0.0,0.0,-0.00159320006796,0.00455995864278,-2.6710367911e-05,-1.0,0.0,0.0,0.0,0.0,0.0,0.0,0.0,0.0,-0.196775084256,-0.235946730226,9.80918743686,-1.0,0.0,0.0,0.0,0.0,0.0,0.0,0.0,0.0
1596620939166425860,2059,1596620939165948709,xsense,-0.0124514603372,0.00293854021838,0.561774385748,0.827191553169,-1.0,0.0,0.0,0.0,0.0,0.0,0.0,0.0,0.0,-0.00150201639172,0.00764659396969,-0.00304733685196,-1.0,0.0,0.0,0.0,0.0,0.0,0.0,0.0,0.0,-0.175993912354,-0.211526637717,9.8361396861,-1.0,0.0,0.0,0.0,0.0,0.0,0.0,0.0,0.0
1596620939167441609,2060,1596620939166922832,xsense,-0.0124510935747,0.00293098561159,0.561780382326,0.827187512977,-1.0,0.0,0.0,0.0,0.0,0.0,0.0,0.0,0.0,-0.00157025954315,0.00303275000088,-4.0854580387e-05,-1.0,0.0,0.0,0.0,0.0,0.0,0.0,0.0,0.0,-0.175057176422,-0.186765866091,9.81226851515,-1.0,0.0,0.0,0.0,0.0,0.0,0.0,0.0,0.0
1596620939186211921,2061,1596620939185448632,xsense,-0.0124431916873,0.00292857196978,0.561780020889,0.827187885898,-1.0,0.0,0.0,0.0,0.0,0.0,0.0,0.0,0.0,2.26360196466e-05,0.00307054025086,-0.00149616252723,-1.0,0.0,0.0,0.0,0.0,0.0,0.0,0.0,0.0,-0.175355176025,-0.186843141399,9.81226172287,-1.0,0.0,0.0,0.0,0.0,0.0,0.0,0.0,0.0
1596620939187394561,2062,1596620939186937009,xsense,-0.0124446397299,0.00293876255042,0.561766543589,0.827196980846,-1.0,0.0,0.0,0.0,0.0,0.0,0.0,0.0,0.0,0.000113954406219,0.00615723375607,-0.00451673892349,-1.0,0.0,0.0,0.0,0.0,0.0,0.0,0.0,0.0,-0.175065808625,-0.211240494818,9.81180235226,-1.0,0.0,0.0,0.0,0.0,0.0,0.0,0.0,0.0
1596620939206915171,2063,1596620939206514323,xsense,-0.0124307105111,0.00294055913869,0.561772751277,0.827192968098,-1.0,0.0,0.0,0.0,0.0,0.0,0.0,0.0,0.0,0.00147811134434,0.00307609239246,9.741794156e-05,-1.0,0.0,0.0,0.0,0.0,0.0,0.0,0.0,0.0,-0.200554975896,-0.187460775779,9.81003575064,-1.0,0.0,0.0,0.0,0.0,0.0,0.0,0.0,0.0
1596620939208921539,2064,1596620939208621217,xsense,-0.0124277612305,0.00294367672767,0.561773626351,0.827192407034,-1.0,0.0,0.0,0.0,0.0,0.0,0.0,0.0,0.0,-4.24786873773e-07,0.0045977422589,-0.00148208006496,-1.0,0.0,0.0,0.0,0.0,0.0,0.0,0.0,0.0,-0.15452071038,-0.186518488881,9.838763447,-1.0,0.0,0.0,0.0,0.0,0.0,0.0,0.0,0.0
1596620939226826481,2065,1596620939226339414,xsense,-0.012413832159,0.00294547309459,0.561779833977,0.827188393956,-1.0,0.0,0.0,0.0,0.0,0.0,0.0,0.0,0.0,0.00147808503655,0.00307610915238,9.74500439873e-05,-1.0,0.0,0.0,0.0,0.0,0.0,0.0,0.0,0.0,-0.20350420781,-0.187834160574,9.83433245995,-1.0,0.0,0.0,0.0,0.0,0.0,0.0,0.0,0.0
1596620939229041922,2066,1596620939228441952,xsense,-0.0124220952279,0.00295086974566,0.561778371869,0.827189243655,-1.0,0.0,0.0,0.0,0.0,0.0,0.0,0.0,0.0,-0.0015477001671,0.00610324378862,-0.00153727703342,-1.0,0.0,0.0,0.0,0.0,0.0,0.0,0.0,0.0,-0.177450552659,-0.186629642925,9.81222811685,-1.0,0.0,0.0,0.0,0.0,0.0,0.0,0.0,0.0
1596620939246442434,2067,1596620939245914663,xsense,-0.0124204379351,0.00294408064778,0.56177774718,0.827189716984,-1.0,0.0,0.0,0.0,0.0,0.0,0.0,0.0,0.0,-0.00150153405644,0.0030488382203,-0.00156549332148,-1.0,0.0,0.0,0.0,0.0,0.0,0.0,0.0,0.0,-0.180097904166,-0.187297990822,9.83652628839,-1.0,0.0,0.0,0.0,0.0,0.0,0.0,0.0,0.0
1596620939248254545,2068,1596620939247753649,xsense,-0.0124299699841,0.00293931790101,0.561763416222,0.82719932329,-1.0,0.0,0.0,0.0,0.0,0.0,0.0,0.0,0.0,-0.00291109232639,0.00458662880141,-0.00466951038803,-1.0,0.0,0.0,0.0,0.0,0.0,0.0,0.0,0.0,-0.229074226882,-0.188910380926,9.83208248,-1.0,0.0,0.0,0.0,0.0,0.0,0.0,0.0,0.0
1596620939251089424,2069,1596620939250907263,xsense,-0.012431708162,0.0029487462288,0.561788209964,0.827182425269,-1.0,0.0,0.0,0.0,0.0,0.0,0.0,0.0,0.0,-0.000299278885698,0.00606031045518,0.00462975905979,-1.0,0.0,0.0,0.0,0.0,0.0,0.0,0.0,0.0,-0.204555588512,-0.212772099718,9.83383301057,-1.0,0.0,0.0,0.0,0.0,0.0,0.0,0.0,0.0
1596620939267334852,2070,1596620939266683876,xsense,-0.0124458545042,0.00294950350706,0.561774266571,0.827191679451,-1.0,0.0,0.0,0.0,0.0,0.0,0.0,0.0,0.0,-0.00293394598344,0.00611392847559,-0.00465545665895,-1.0,0.0,0.0,0.0,0.0,0.0,0.0,0.0,0.0,-0.181589935407,-0.187837607822,9.83648856912,-1.0,0.0,0.0,0.0,0.0,0.0,0.0,0.0,0.0
1596620939269325254,2071,1596620939269057442,xsense,-0.0124275419067,0.00294504732073,0.561780511585,0.827187729419,-1.0,0.0,0.0,0.0,0.0,0.0,0.0,0.0,0.0,0.00150108326383,0.00154896738911,8.3616561856e-05,-1.0,0.0,0.0,0.0,0.0,0.0,0.0,0.0,0.0,-0.228362601593,-0.188785327059,9.80773130402,-1.0,0.0,0.0,0.0,0.0,0.0,0.0,0.0,0.0
1596620939296615483,2072,1596620939296051472,xsense,-0.0124224987609,0.0029311889649,0.561780915604,0.827187580007,-1.0,0.0,0.0,0.0,0.0,0.0,0.0,0.0,0.0,-0.00147833098613,0.00152164599041,-0.00157971508889,-1.0,0.0,0.0,0.0,0.0,0.0,0.0,0.0,0.0,-0.204208845585,-0.188090389558,9.80994831876,-1.0,0.0,0.0,0.0,0.0,0.0,0.0,0.0,0.0
1596620939299193333,2073,1596620939298653588,xsense,-0.0124252274629,0.00293065193778,0.561780254605,0.827187989841,-1.0,0.0,0.0,0.0,0.0,0.0,0.0,0.0,0.0,-0.00152462447871,0.00457607463444,-0.00155139608184,-1.0,0.0,0.0,0.0,0.0,0.0,0.0,0.0,0.0,-0.182409091172,-0.188063022955,9.83646910466,-1.0,0.0,0.0,0.0,0.0,0.0,0.0,0.0,0.0
1596620939315332171,2074,1596620939314759274,xsense,-0.0124288512119,0.00292993408629,0.561779868884,0.827188199904,-1.0,0.0,0.0,0.0,0.0,0.0,0.0,0.0,0.0,-0.00152462575822,0.00457608047018,-0.00155139797414,-1.0,0.0,0.0,0.0,0.0,0.0,0.0,0.0,0.0,-0.180648248014,-0.187697402031,9.81214939869,-1.0,0.0,0.0,0.0,0.0,0.0,0.0,0.0,0.0
1596620939316681636,2075,1596620939316305166,xsense,-0.0124359655871,0.00293564945378,0.561779171895,0.827188546069,-1.0,0.0,0.0,0.0,0.0,0.0,0.0,0.0,0.0,-0.00154779882533,0.00610330324155,-0.00153721917243,-1.0,0.0,0.0,0.0,0.0,0.0,0.0,0.0,0.0,-0.20768122736,-0.189066324006,9.83422152601,-1.0,0.0,0.0,0.0,0.0,0.0,0.0,0.0,0.0
1596620939336584344,2076,1596620939336140106,xsense,-0.0124250887921,0.00292593353836,0.561791697311,0.82718023726,-1.0,0.0,0.0,0.0,0.0,0.0,0.0,0.0,0.0,-9.23314788467e-05,0.00151097819594,0.00153858271963,-1.0,0.0,0.0,0.0,0.0,0.0,0.0,0.0,0.0,-0.183753113587,-0.188450424804,9.83643667381,-1.0,0.0,0.0,0.0,0.0,0.0,0.0,0.0,0.0
1596620939337944682,2077,1596620939337526833,xsense,-0.0124363707289,0.00293806779567,0.561784657613,0.827184805779,-1.0,0.0,0.0,0.0,0.0,0.0,0.0,0.0,0.0,-0.0015017567919,0.00764678670065,-0.00304743108719,-1.0,0.0,0.0,0.0,0.0,0.0,0.0,0.0,0.0,-0.206293127586,-0.1887076831,9.80989285692,-1.0,0.0,0.0,0.0,0.0,0.0,0.0,0.0,0.0
1596620939356635199,2078,1596620939355886726,xsense,-0.0124420646218,0.00292689680221,0.561782643595,0.827186127578,-1.0,0.0,0.0,0.0,0.0,0.0,0.0,0.0,0.0,-0.00302559323013,0.0030270759086,-0.00163531836765,-1.0,0.0,0.0,0.0,0.0,0.0,0.0,0.0,0.0,-0.207553874099,-0.164536017031,9.81033182976,-1.0,0.0,0.0,0.0,0.0,0.0,0.0,0.0,0.0
1596620939357968636,2079,1596620939357645862,xsense,-0.0124323066064,0.00293511194668,0.561782511543,0.827186334869,-1.0,0.0,0.0,0.0,0.0,0.0,0.0,0.0,0.0,0.00152381653793,0.00461976056432,-0.00141202493772,-1.0,0.0,0.0,0.0,0.0,0.0,0.0,0.0,0.0,-0.206442437235,-0.213409951573,9.80941379686,-1.0,0.0,0.0,0.0,0.0,0.0,0.0,0.0,0.0
1596620939376087009,2080,1596620939375766938,xsense,-0.0124364070368,0.0029342971745,0.561787742769,0.827182723317,-1.0,0.0,0.0,0.0,0.0,0.0,0.0,0.0,0.0,-0.00159386947392,0.00455983724396,-2.70914962431e-05,-1.0,0.0,0.0,0.0,0.0,0.0,0.0,0.0,0.0,-0.186288164318,-0.164440107752,9.83684997555,-1.0,0.0,0.0,0.0,0.0,0.0,0.0,0.0,0.0
1596620939377344951,2081,1596620939376986168,xsense,-0.0124282887447,0.00293205175033,0.561781075129,0.827187381636,-1.0,0.0,0.0,0.0,0.0,0.0,0.0,0.0,0.0,9.21741266333e-05,0.00308700545482,-0.00302032323164,-1.0,0.0,0.0,0.0,0.0,0.0,0.0,0.0,0.0,-0.18370355391,-0.188395042679,9.81207930193,-1.0,0.0,0.0,0.0,0.0,0.0,0.0,0.0,0.0
1596620939395904472,2082,1596620939395523079,xsense,-0.0124382808234,0.0029264079783,0.561786713344,0.827183422232,-1.0,0.0,0.0,0.0,0.0,0.0,0.0,0.0,0.0,-0.00311814211555,0.00453796886558,-9.69050175531e-05,-1.0,0.0,0.0,0.0,0.0,0.0,0.0,0.0,0.0,-0.184074701673,-0.188546362623,9.81206944052,-1.0,0.0,0.0,0.0,0.0,0.0,0.0,0.0,0.0
1596620939397962184,2083,1596620939397639184,xsense,-0.0124301624956,0.00292416280593,0.561780045941,0.827188080375,-1.0,0.0,0.0,0.0,0.0,0.0,0.0,0.0,0.0,9.22395249728e-05,0.00308706004636,-0.00302027542769,-1.0,0.0,0.0,0.0,0.0,0.0,0.0,0.0,0.0,-0.184445846985,-0.188697687535,9.81205956094,-1.0,0.0,0.0,0.0,0.0,0.0,0.0,0.0,0.0
1596620939399370186,2084,1596620939398796793,xsense,-0.012427644035,0.00292738675659,0.561780982408,0.827187470816,-1.0,0.0,0.0,0.0,0.0,0.0,0.0,0.0,0.0,-4.22280560213e-07,0.00459798634906,-0.00148165374457,-1.0,0.0,0.0,0.0,0.0,0.0,0.0,0.0,0.0,-0.187037002709,-0.189218481082,9.83636003551,-1.0,0.0,0.0,0.0,0.0,0.0,0.0,0.0,0.0
1596620939417866770,2085,1596620939417616827,xsense,-0.012419744837,0.00292497390206,0.561780621664,0.827187842989,-1.0,0.0,0.0,0.0,0.0,0.0,0.0,0.0,0.0,2.285944706e-05,0.0030707626237,-0.00149589658025,-1.0,0.0,0.0,0.0,0.0,0.0,0.0,0.0,0.0,-0.20874930127,-0.213797169017,9.80935654434,-1.0,0.0,0.0,0.0,0.0,0.0,0.0,0.0,0.0
1596620939419944206,2086,1596620939419582066,xsense,-0.0124152136726,0.00291141748975,0.561784859503,0.827185080711,-1.0,0.0,0.0,0.0,0.0,0.0,0.0,0.0,0.0,-0.00154749097899,0.00150533120397,-5.56605373528e-05,-1.0,0.0,0.0,0.0,0.0,0.0,0.0,0.0,0.0,-0.187634940767,-0.189296604051,9.83634714383,-1.0,0.0,0.0,0.0,0.0,0.0,0.0,0.0,0.0
1596620939447434440,2087,1596620939446917853,xsense,-0.012417944358,0.00291088044902,0.561784197704,0.827185491074,-1.0,0.0,0.0,0.0,0.0,0.0,0.0,0.0,0.0,-0.00152462241474,0.0045761112777,-0.00155153508883,-1.0,0.0,0.0,0.0,0.0,0.0,0.0,0.0,0.0,-0.210758134203,-0.165229033835,9.81025186734,-1.0,0.0,0.0,0.0,0.0,0.0,0.0,0.0,0.0
1596620939448501416,2088,1596620939448080992,xsense,-0.0124255841311,0.00291643894724,0.561784719871,0.827185002138,-1.0,0.0,0.0,0.0,0.0,0.0,0.0,0.0,0.0,-0.0015479317678,0.00610334936654,-0.00153727487975,-1.0,0.0,0.0,0.0,0.0,0.0,0.0,0.0,0.0,-0.186232947238,-0.189081049316,9.81201842567,-1.0,0.0,0.0,0.0,0.0,0.0,0.0,0.0,0.0
1596620939465157533,2089,1596620939464910515,xsense,-0.0124195425674,0.00290339826634,0.561784128974,0.827185540054,-1.0,0.0,0.0,0.0,0.0,0.0,0.0,0.0,0.0,-0.00147797210555,0.0015216583924,-0.00158009610413,-1.0,0.0,0.0,0.0,0.0,0.0,0.0,0.0,0.0,-0.213128105166,-0.190455712246,9.83407817713,-1.0,0.0,0.0,0.0,0.0,0.0,0.0,0.0,0.0
1596620939467603439,2090,1596620939466879118,xsense,-0.0124125155309,0.00290091674729,0.561783283464,0.827186228464,-1.0,0.0,0.0,0.0,0.0,0.0,0.0,0.0,0.0,2.28863742569e-05,0.00307082265543,-0.00149580588499,-1.0,0.0,0.0,0.0,0.0,0.0,0.0,0.0,0.0,-0.191273163323,-0.190352241673,9.86061677606,-1.0,0.0,0.0,0.0,0.0,0.0,0.0,0.0,0.0
1596620939485592516,2091,1596620939485383499,xsense,-0.0124152465326,0.00290037989218,0.561782621531,0.827186638913,-1.0,0.0,0.0,0.0,0.0,0.0,0.0,0.0,0.0,-0.00152464932913,0.00457611917145,-0.00155155432296,-1.0,0.0,0.0,0.0,0.0,0.0,0.0,0.0,0.0,-0.189423016493,-0.189906195301,9.83630112297,-1.0,0.0,0.0,0.0,0.0,0.0,0.0,0.0,0.0
1596620939486682981,2092,1596620939486586619,xsense,-0.0124051303639,0.00289045509058,0.561795248254,0.827178249865,-1.0,0.0,0.0,0.0,0.0,0.0,0.0,0.0,0.0,-9.29667561118e-05,0.00151086516526,0.00153866476187,-1.0,0.0,0.0,0.0,0.0,0.0,0.0,0.0,0.0,-0.188243703703,-0.165064186755,9.81244383823,-1.0,0.0,0.0,0.0,0.0,0.0,0.0,0.0,0.0
1596620939495819508,2093,1596620939495627845,xsense,-0.0124080817843,0.00288974937577,0.561800892849,0.827174374391,-1.0,0.0,0.0,0.0,0.0,0.0,0.0,0.0,0.0,-0.00159422527485,0.00455976864962,-2.71954309637e-05,-1.0,0.0,0.0,0.0,0.0,0.0,0.0,0.0,0.0,-0.187050458841,-0.213942295199,9.81152265416,-1.0,0.0,0.0,0.0,0.0,0.0,0.0,0.0,0.0
1596620939496300022,2094,1596620939496176621,xsense,-0.0124132614699,0.00287871652386,0.561786922158,0.827183823599,-1.0,0.0,0.0,0.0,0.0,0.0,0.0,0.0,0.0,-0.00288609883604,0.00305974527443,-0.00468472130613,-1.0,0.0,0.0,0.0,0.0,0.0,0.0,0.0,0.0,-0.214693466561,-0.190993881631,9.83403369044,-1.0,0.0,0.0,0.0,0.0,0.0,0.0,0.0,0.0
1596620939525785043,2095,1596620939525495009,xsense,-0.0124145770016,0.00288846987946,0.561799105063,0.827175495629,-1.0,0.0,0.0,0.0,0.0,0.0,0.0,0.0,0.0,-0.000163210068821,0.00609254614152,0.00158167285208,-1.0,0.0,0.0,0.0,0.0,0.0,0.0,0.0,0.0,-0.19083979572,-0.190445063236,9.83626331926,-1.0,0.0,0.0,0.0,0.0,0.0,0.0,0.0,0.0
1596620939527000805,2096,1596620939526810567,xsense,-0.0124071592179,0.00288469638824,0.561800221017,0.827174862162,-1.0,0.0,0.0,0.0,0.0,0.0,0.0,0.0,0.0,2.29823082767e-05,0.00307088749989,-0.0014957132048,-1.0,0.0,0.0,0.0,0.0,0.0,0.0,0.0,0.0,-0.19054337933,-0.214850209474,9.8357965548,-1.0,0.0,0.0,0.0,0.0,0.0,0.0,0.0,0.0
1596620939546018911,2097,1596620939545729333,xsense,-0.0123992612531,0.00288228397377,0.561799861002,0.827175233513,-1.0,0.0,0.0,0.0,0.0,0.0,0.0,0.0,0.0,2.29817200306e-05,0.00307089017864,-0.00149571407291,-1.0,0.0,0.0,0.0,0.0,0.0,0.0,0.0,0.0,-0.189360143039,-0.189928045977,9.81194221288,-1.0,0.0,0.0,0.0,0.0,0.0,0.0,0.0,0.0
1596620939548314927,2098,1596620939547905719,xsense,-0.0123947272121,0.00289600283962,0.561808312386,0.827169513485,-1.0,0.0,0.0,0.0,0.0,0.0,0.0,0.0,0.0,0.00143059934121,0.00613095317014,0.000127526518081,-1.0,0.0,0.0,0.0,0.0,0.0,0.0,0.0,0.0,-0.192041013828,-0.19038230401,9.83624115527,-1.0,0.0,0.0,0.0,0.0,0.0,0.0,0.0,0.0
1596620939566450645,2099,1596620939566081936,xsense,-0.0123976793677,0.0028952958832,0.561813956365,0.827165638335,-1.0,0.0,0.0,0.0,0.0,0.0,0.0,0.0,0.0,-0.00159436463088,0.00455974968901,-2.73395684739e-05,-1.0,0.0,0.0,0.0,0.0,0.0,0.0,0.0,0.0,-0.217614953643,-0.166694549318,9.83444168635,-1.0,0.0,0.0,0.0,0.0,0.0,0.0,0.0,0.0
1596620939567824503,2100,1596620939567402768,xsense,-0.0123973526187,0.00288797710671,0.561820190149,0.827161434774,-1.0,0.0,0.0,0.0,0.0,0.0,0.0,0.0,0.0,-0.00157096952494,0.00303250868723,-4.16643261624e-05,-1.0,0.0,0.0,0.0,0.0,0.0,0.0,0.0,0.0,-0.190707268194,-0.190021324571,9.81191431634,-1.0,0.0,0.0,0.0,0.0,0.0,0.0,0.0,0.0
1596620939586882873,2101,1596620939586287004,xsense,-0.0123890128951,0.00288590457492,0.561807217095,0.827170378298,-1.0,0.0,0.0,0.0,0.0,0.0,0.0,0.0,0.0,0.000162834782635,0.00310376198517,-0.00454440837963,-1.0,0.0,0.0,0.0,0.0,0.0,0.0,0.0,0.0,-0.193237638097,-0.190619685411,9.83621312109,-1.0,0.0,0.0,0.0,0.0,0.0,0.0,0.0,0.0
1596620939588537317,2102,1596620939588256415,xsense,-0.0124053845431,0.00287623809375,0.561812887398,0.827166315346,-1.0,0.0,0.0,0.0,0.0,0.0,0.0,0.0,0.0,-0.00464282094699,0.00451569456826,-0.000168076864652,-1.0,0.0,0.0,0.0,0.0,0.0,0.0,0.0,0.0,-0.193607879459,-0.190844571357,9.83620148115,-1.0,0.0,0.0,0.0,0.0,0.0,0.0,0.0,0.0
1596620939606582614,2103,1596620939606274399,xsense,-0.0124018737875,0.0028800777423,0.561812492779,0.827166622656,-1.0,0.0,0.0,0.0,0.0,0.0,0.0,0.0,0.0,-3.68542346329e-07,0.00459820564928,-0.00148125568571,-1.0,0.0,0.0,0.0,0.0,0.0,0.0,0.0,0.0,-0.167518896193,-0.189844656439,9.81413282419,-1.0,0.0,0.0,0.0,0.0,0.0,0.0,0.0,0.0
1596620939608355028,2104,1596620939608112019,xsense,-0.0124010490172,0.00287207693011,0.561813856614,0.827165736521,-1.0,0.0,0.0,0.0,0.0,0.0,0.0,0.0,0.0,-0.0015010952842,0.00304893476755,-0.00156605159938,-1.0,0.0,0.0,0.0,0.0,0.0,0.0,0.0,0.0,-0.169378327975,-0.214845417399,9.83797135745,-1.0,0.0,0.0,0.0,0.0,0.0,0.0,0.0,0.0
1596620939626452215,2105,1596620939625930453,xsense,-0.012397538524,0.00287591614892,0.561813462163,0.827166043716,-1.0,0.0,0.0,0.0,0.0,0.0,0.0,0.0,0.0,-3.8397373132e-07,0.0045982259033,-0.00148122414004,-1.0,0.0,0.0,0.0,0.0,0.0,0.0,0.0,0.0,-0.219850577351,-0.167534420155,9.83437769068,-1.0,0.0,0.0,0.0,0.0,0.0,0.0,0.0,0.0
1596620939628298476,2106,1596620939627985090,xsense,-0.0123982175631,0.00285825108693,0.561812830148,0.827166524035,-1.0,0.0,0.0,0.0,0.0,0.0,0.0,0.0,0.0,-0.00300178187051,0.00149963108221,-0.00165095120588,-1.0,0.0,0.0,0.0,0.0,0.0,0.0,0.0,0.0,-0.168559859031,-0.190147085147,9.81410914537,-1.0,0.0,0.0,0.0,0.0,0.0,0.0,0.0,0.0
1596620939630386549,2107,1596620939630061968,xsense,-0.0123944856984,0.00286226085537,0.561806129538,0.827171117122,-1.0,0.0,0.0,0.0,0.0,0.0,0.0,0.0,0.0,6.96248119025e-05,0.00461475468933,-0.00300550975231,-1.0,0.0,0.0,0.0,0.0,0.0,0.0,0.0,0.0,-0.21670370008,-0.216103819105,9.80913349736,-1.0,0.0,0.0,0.0,0.0,0.0,0.0,0.0,0.0
1596620939647453191,2108,1596620939646865501,xsense,-0.0124032701028,0.0028675904883,0.561810218814,0.827168189579,-1.0,0.0,0.0,0.0,0.0,0.0,0.0,0.0,0.0,-0.00161819436325,0.00608693450094,-1.29485082941e-05,-1.0,0.0,0.0,0.0,0.0,0.0,0.0,0.0,0.0,-0.193677175109,-0.191079159627,9.81183560025,-1.0,0.0,0.0,0.0,0.0,0.0,0.0,0.0,0.0
1596620939648864526,2109,1596620939648359689,xsense,-0.0123953731305,0.00286517858297,0.561809859515,0.827168560348,-1.0,0.0,0.0,0.0,0.0,0.0,0.0,0.0,0.0,2.31027177903e-05,0.00307102327698,-0.00149553332069,-1.0,0.0,0.0,0.0,0.0,0.0,0.0,0.0,0.0,-0.191883604014,-0.190631122018,9.78751997027,-1.0,0.0,0.0,0.0,0.0,0.0,0.0,0.0,0.0
1596620939675870823,2110,1596620939675016427,xsense,-0.0124005009547,0.00285367792412,0.561809840081,0.827168536446,-1.0,0.0,0.0,0.0,0.0,0.0,0.0,0.0,0.0,-0.00302522420929,0.00302684329334,-0.00163674336305,-1.0,0.0,0.0,0.0,0.0,0.0,0.0,0.0,0.0,-0.198905463946,-0.192365510513,9.86042670159,-1.0,0.0,0.0,0.0,0.0,0.0,0.0,0.0,0.0
1596620939678144060,2111,1596620939677750167,xsense,-0.012388216805,0.00284501482532,0.56180951566,0.8271689707,-1.0,0.0,0.0,0.0,0.0,0.0,0.0,0.0,0.0,4.66318116297e-05,0.00154379420971,-0.00150991726647,-1.0,0.0,0.0,0.0,0.0,0.0,0.0,0.0,0.0,-0.196885086714,-0.191986940902,9.83611419639,-1.0,0.0,0.0,0.0,0.0,0.0,0.0,0.0,0.0
1596620939696850300,2112,1596620939696109453,xsense,-0.0123873570147,0.0028374880294,0.561808527215,0.827169680777,-1.0,0.0,0.0,0.0,0.0,0.0,0.0,0.0,0.0,-0.0015010743468,0.00304893946056,-0.0015661293348,-1.0,0.0,0.0,0.0,0.0,0.0,0.0,0.0,0.0,-0.197108006927,-0.192061500679,9.83610827656,-1.0,0.0,0.0,0.0,0.0,0.0,0.0,0.0,0.0
1596620939698491656,2113,1596620939698038077,xsense,-0.0123900902632,0.00283694991214,0.561807864459,0.827170091826,-1.0,0.0,0.0,0.0,0.0,0.0,0.0,0.0,0.0,-0.00152463213214,0.00457620165473,-0.00155169151675,-1.0,0.0,0.0,0.0,0.0,0.0,0.0,0.0,0.0,-0.194482771045,-0.216082293026,9.81133124847,-1.0,0.0,0.0,0.0,0.0,0.0,0.0,0.0,0.0
1596620939716057046,2114,1596620939715484281,xsense,-0.0123955695641,0.00282410546125,0.561814717966,0.827165398793,-1.0,0.0,0.0,0.0,0.0,0.0,0.0,0.0,0.0,-0.00309545614395,0.00301024934204,-0.00011249836081,-1.0,0.0,0.0,0.0,0.0,0.0,0.0,0.0,0.0,-0.196359758931,-0.167514437843,9.81224325664,-1.0,0.0,0.0,0.0,0.0,0.0,0.0,0.0,0.0
1596620939717795247,2115,1596620939717231362,xsense,-0.0123918379337,0.00282811573654,0.561808018524,0.827169991257,-1.0,0.0,0.0,0.0,0.0,0.0,0.0,0.0,0.0,6.98005630356e-05,0.00461495642509,-0.00300526689128,-1.0,0.0,0.0,0.0,0.0,0.0,0.0,0.0,0.0,-0.173924688533,-0.19188635257,9.83833633258,-1.0,0.0,0.0,0.0,0.0,0.0,0.0,0.0,0.0
1596620939736607100,2116,1596620939735903709,xsense,-0.0123826598404,0.00280852709512,0.561812913982,0.827166870464,-1.0,0.0,0.0,0.0,0.0,0.0,0.0,0.0,0.0,-0.00152415577696,-2.21566852118e-05,-7.07575958662e-05,-1.0,0.0,0.0,0.0,0.0,0.0,0.0,0.0,0.0,-0.198446447152,-0.192668711696,9.83606948849,-1.0,0.0,0.0,0.0,0.0,0.0,0.0,0.0,0.0
1596620939738099044,2117,1596620939737773595,xsense,-0.0123743182061,0.00280645828816,0.561799942561,0.827175812376,-1.0,0.0,0.0,0.0,0.0,0.0,0.0,0.0,0.0,0.000163682977953,0.00310432547465,-0.0045440575774,-1.0,0.0,0.0,0.0,0.0,0.0,0.0,0.0,0.0,-0.196346674472,-0.192209623004,9.81176046178,-1.0,0.0,0.0,0.0,0.0,0.0,0.0,0.0,0.0
1596620939756271662,2118,1596620939755797937,xsense,-0.0123869659014,0.00281855858795,0.561803648287,0.827173065068,-1.0,0.0,0.0,0.0,0.0,0.0,0.0,0.0,0.0,-0.00164230562367,0.00761412335393,1.6208365005e-06,-1.0,0.0,0.0,0.0,0.0,0.0,0.0,0.0,0.0,-0.173324792411,-0.167179418485,9.81447463198,-1.0,0.0,0.0,0.0,0.0,0.0,0.0,0.0,0.0
1596620939757665607,2119,1596620939757385776,xsense,-0.012368439884,0.00281427310286,0.561803594201,0.827173393615,-1.0,0.0,0.0,0.0,0.0,0.0,0.0,0.0,0.0,0.00157089245618,0.00156606936875,-0.00143900625475,-1.0,0.0,0.0,0.0,0.0,0.0,0.0,0.0,0.0,-0.197317129083,-0.192291545329,9.81173938829,-1.0,0.0,0.0,0.0,0.0,0.0,0.0,0.0,0.0
1596620939776307168,2120,1596620939775841513,xsense,-0.0123600352815,0.00282197688057,0.56181028361,0.827168949613,-1.0,0.0,0.0,0.0,0.0,0.0,0.0,0.0,0.0,0.00145322325837,0.00460399839342,0.000114288302272,-1.0,0.0,0.0,0.0,0.0,0.0,0.0,0.0,0.0,-0.197618551191,-0.192144493376,9.81173620357,-1.0,0.0,0.0,0.0,0.0,0.0,0.0,0.0,0.0
1596620939777702260,2121,1596620939777302767,xsense,-0.0123583816823,0.0028151873812,0.561809654448,0.82716942478,-1.0,0.0,0.0,0.0,0.0,0.0,0.0,0.0,0.0,-0.00150101484945,0.00304892447895,-0.00156628791625,-1.0,0.0,0.0,0.0,0.0,0.0,0.0,0.0,0.0,-0.172938469826,-0.21583648607,9.81353196361,-1.0,0.0,0.0,0.0,0.0,0.0,0.0,0.0,0.0
1596620939796240212,2122,1596620939795784381,xsense,-0.0123559486483,0.00281857097324,0.561808835854,0.827170005589,-1.0,0.0,0.0,0.0,0.0,0.0,0.0,0.0,0.0,-5.22410360508e-07,0.00459840896802,-0.0014809018245,-1.0,0.0,0.0,0.0,0.0,0.0,0.0,0.0,0.0,-0.202868644562,-0.193286395438,9.86032795069,-1.0,0.0,0.0,0.0,0.0,0.0,0.0,0.0,0.0
1596620939797755983,2123,1596620939797171284,xsense,-0.0123649253421,0.00281365468409,0.561807901751,0.827170522624,-1.0,0.0,0.0,0.0,0.0,0.0,0.0,0.0,0.0,-0.00304881615118,0.00455396674276,-0.00162279325577,-1.0,0.0,0.0,0.0,0.0,0.0,0.0,0.0,0.0,-0.17676575804,-0.19219829913,9.83827960827,-1.0,0.0,0.0,0.0,0.0,0.0,0.0,0.0,0.0
1596620939800128876,2124,1596620939799712113,xsense,-0.0123538422283,0.00280381665019,0.561821517292,0.827161473898,-1.0,0.0,0.0,0.0,0.0,0.0,0.0,0.0,0.0,-9.41908835953e-05,0.00151063985484,0.00153883030681,-1.0,0.0,0.0,0.0,0.0,0.0,0.0,0.0,0.0,-0.202118665121,-0.168665481758,9.83646589249,-1.0,0.0,0.0,0.0,0.0,0.0,0.0,0.0,0.0
1596620939826500276,2125,1596620939826130000,xsense,-0.0123563531172,0.00280345071639,0.561814547477,0.827166171603,-1.0,0.0,0.0,0.0,0.0,0.0,0.0,0.0,0.0,-0.00145410364186,0.00459285250124,-0.00307615611187,-1.0,0.0,0.0,0.0,0.0,0.0,0.0,0.0,0.0,-0.175108282365,-0.191898794065,9.81396039369,-1.0,0.0,0.0,0.0,0.0,0.0,0.0,0.0,0.0
1596620939828914305,2126,1596620939828528196,xsense,-0.0123708860311,0.00280477975879,0.561812692367,0.82716720987,-1.0,0.0,0.0,0.0,0.0,0.0,0.0,0.0,0.0,-0.00307249780382,0.00608124510081,-0.00160834733171,-1.0,0.0,0.0,0.0,0.0,0.0,0.0,0.0,0.0,-0.202938574169,-0.168970560476,9.83644377679,-1.0,0.0,0.0,0.0,0.0,0.0,0.0,0.0,0.0
1596620939846244963,2127,1596620939845805790,xsense,-0.0123604568524,0.00278548865744,0.561812130914,0.827167812308,-1.0,0.0,0.0,0.0,0.0,0.0,0.0,0.0,0.0,-0.0014535369044,-5.58688602753e-06,-0.00159540125295,-1.0,0.0,0.0,0.0,0.0,0.0,0.0,0.0,0.0,-0.177421281581,-0.217280704856,9.83777610937,-1.0,0.0,0.0,0.0,0.0,0.0,0.0,0.0,0.0
1596620939847463716,2128,1596620939846850657,xsense,-0.0123707676356,0.00277965908522,0.561817137085,0.827164277566,-1.0,0.0,0.0,0.0,0.0,0.0,0.0,0.0,0.0,-0.00311943426497,0.00453729002007,-9.85219508861e-05,-1.0,0.0,0.0,0.0,0.0,0.0,0.0,0.0,0.0,-0.203456124848,-0.169423045465,9.83642530156,-1.0,0.0,0.0,0.0,0.0,0.0,0.0,0.0,0.0
1596620939866473505,2129,1596620939865969878,xsense,-0.0123630968636,0.00277707431035,0.561823085611,0.827160360613,-1.0,0.0,0.0,0.0,0.0,0.0,0.0,0.0,0.0,-4.74384847208e-05,0.00305455002153,2.91302839774e-05,-1.0,0.0,0.0,0.0,0.0,0.0,0.0,0.0,0.0,-0.20382944862,-0.169578869544,9.83641488665,-1.0,0.0,0.0,0.0,0.0,0.0,0.0,0.0,0.0
1596620939868024249,2130,1596620939867491244,xsense,-0.0123565648842,0.00277423242815,0.561821920409,0.827161259179,-1.0,0.0,0.0,0.0,0.0,0.0,0.0,0.0,0.0,2.32220310059e-05,0.00307125665363,-0.00149519474385,-1.0,0.0,0.0,0.0,0.0,0.0,0.0,0.0,0.0,-0.17907369678,-0.193267636426,9.83821692102,-1.0,0.0,0.0,0.0,0.0,0.0,0.0,0.0,0.0
1596620939886010963,2131,1596620939885616336,xsense,-0.0123616108756,0.00279074670388,0.561815154692,0.827165723581,-1.0,0.0,0.0,0.0,0.0,0.0,0.0,0.0,0.0,2.27104845341e-05,0.00766980036222,-0.00297582885106,-1.0,0.0,0.0,0.0,0.0,0.0,0.0,0.0,0.0,-0.179597740278,-0.193269385,9.83820733615,-1.0,0.0,0.0,0.0,0.0,0.0,0.0,0.0,0.0
1596620939887825813,2132,1596620939887450172,xsense,-0.0123606183051,0.0027832628716,0.561808871302,0.827170031305,-1.0,0.0,0.0,0.0,0.0,0.0,0.0,0.0,0.0,-0.00143015985008,0.00306567542295,-0.00309073317827,-1.0,0.0,0.0,0.0,0.0,0.0,0.0,0.0,0.0,-0.204417209793,-0.194057105594,9.83591991928,-1.0,0.0,0.0,0.0,0.0,0.0,0.0,0.0,0.0
1596620939906230939,2133,1596620939905681354,xsense,-0.0123543532162,0.0027703959471,0.561801968752,0.827174856224,-1.0,0.0,0.0,0.0,0.0,0.0,0.0,0.0,0.0,-0.00140638155819,0.00153840005229,-0.0031053068118,-1.0,0.0,0.0,0.0,0.0,0.0,0.0,0.0,0.0,-0.180340453143,-0.193489193343,9.83818942704,-1.0,0.0,0.0,0.0,0.0,0.0,0.0,0.0,0.0
1596620939908041338,2134,1596620939907663411,xsense,-0.0123584479083,0.0027688946458,0.561807585718,0.827170985116,-1.0,0.0,0.0,0.0,0.0,0.0,0.0,0.0,0.0,-0.00159554134777,0.00455949737446,-2.75032240616e-05,-1.0,0.0,0.0,0.0,0.0,0.0,0.0,0.0,0.0,-0.207197033397,-0.194888763495,9.86020640626,-1.0,0.0,0.0,0.0,0.0,0.0,0.0,0.0,0.0
1596620939926003812,2135,1596620939925450204,xsense,-0.0123593310676,0.00277898391021,0.561807160695,0.827171226758,-1.0,0.0,0.0,0.0,0.0,0.0,0.0,0.0,0.0,-2.44061425749e-05,0.00612587394738,-0.00146594435608,-1.0,0.0,0.0,0.0,0.0,0.0,0.0,0.0,0.0,-0.176633845604,-0.192650333811,9.78956382107,-1.0,0.0,0.0,0.0,0.0,0.0,0.0,0.0,0.0
1596620939927727312,2136,1596620939927198484,xsense,-0.0123530592499,0.0027757107319,0.561812359411,0.827167800492,-1.0,0.0,0.0,0.0,0.0,0.0,0.0,0.0,0.0,-4.76325582579e-05,0.00305456714935,2.9184751196e-05,-1.0,0.0,0.0,0.0,0.0,0.0,0.0,0.0,0.0,-0.208173580758,-0.194975223365,9.86018412739,-1.0,0.0,0.0,0.0,0.0,0.0,0.0,0.0,0.0
1596620939946850758,2137,1596620939946371380,xsense,-0.0123555711249,0.00277534528656,0.561805389092,0.827172498399,-1.0,0.0,0.0,0.0,0.0,0.0,0.0,0.0,0.0,-0.00145381492341,0.00459299586357,-0.00307621008736,-1.0,0.0,0.0,0.0,0.0,0.0,0.0,0.0,0.0,-0.203254307556,-0.218379268596,9.81110259625,-1.0,0.0,0.0,0.0,0.0,0.0,0.0,0.0,0.0
1596620939948390539,2138,1596620939947915559,xsense,-0.012357897997,0.00278577050295,0.561803540586,0.827173684074,-1.0,0.0,0.0,0.0,0.0,0.0,0.0,0.0,0.0,-2.44480983571e-05,0.00612590582205,-0.0014659061981,-1.0,0.0,0.0,0.0,0.0,0.0,0.0,0.0,0.0,-0.182507866627,-0.193879052956,9.83814178426,-1.0,0.0,0.0,0.0,0.0,0.0,0.0,0.0,0.0
1596620939952699509,2139,1596620939952188298,xsense,-0.0123453912924,0.00277728272942,0.561796910049,0.827178402688,-1.0,0.0,0.0,0.0,0.0,0.0,0.0,0.0,0.0,0.000118070415456,0.00156081127922,-0.00303402264552,-1.0,0.0,0.0,0.0,0.0,0.0,0.0,0.0,0.0,-0.204910028465,-0.194058720454,9.81154896043,-1.0,0.0,0.0,0.0,0.0,0.0,0.0,0.0,0.0
1596620939967863045,2140,1596620939967083198,xsense,-0.0123553128249,0.00277201454306,0.561795866318,0.827178981097,-1.0,0.0,0.0,0.0,0.0,0.0,0.0,0.0,0.0,-0.00304889863783,0.00455380758805,-0.00162341230257,-1.0,0.0,0.0,0.0,0.0,0.0,0.0,0.0,0.0,-0.180909053794,-0.193490873549,9.81382391672,-1.0,0.0,0.0,0.0,0.0,0.0,0.0,0.0,0.0
1596620939969082193,2141,1596620939968917281,xsense,-0.0123582760736,0.00277130022036,0.561801508501,0.827175107189,-1.0,0.0,0.0,0.0,0.0,0.0,0.0,0.0,0.0,-0.00159578792477,0.0045594480063,-2.76199376366e-05,-1.0,0.0,0.0,0.0,0.0,0.0,0.0,0.0,0.0,-0.182861064064,-0.218654621307,9.83764605985,-1.0,0.0,0.0,0.0,0.0,0.0,0.0,0.0,0.0
1596620939996837747,2142,1596620939996365682,xsense,-0.0123411202451,0.00276605230464,0.561807776764,0.827171123573,-1.0,0.0,0.0,0.0,0.0,0.0,0.0,0.0,0.0,0.00150022797999,0.00154971066776,8.61527372327e-05,-1.0,0.0,0.0,0.0,0.0,0.0,0.0,0.0,0.0,-0.210492062597,-0.195514876305,9.86012421952,-1.0,0.0,0.0,0.0,0.0,0.0,0.0,0.0,0.0
1596620939998672793,2143,1596620939998166243,xsense,-0.012348021419,0.00277193799664,0.561800772531,0.827175758053,-1.0,0.0,0.0,0.0,0.0,0.0,0.0,0.0,0.0,-0.0014775692744,0.00612032422041,-0.00306166345334,-1.0,0.0,0.0,0.0,0.0,0.0,0.0,0.0,0.0,-0.207087982325,-0.170045778249,9.81197915747,-1.0,0.0,0.0,0.0,0.0,0.0,0.0,0.0,0.0
1596620940016069897,2144,1596620940015562186,xsense,-0.0123560721504,0.0027766864388,0.56180146284,0.827175153063,-1.0,0.0,0.0,0.0,0.0,0.0,0.0,0.0,0.0,-0.00154867189978,0.00610353378264,-0.00153736133397,-1.0,0.0,0.0,0.0,0.0,0.0,0.0,0.0,0.0,-0.184896372139,-0.194416356353,9.83808658173,-1.0,0.0,0.0,0.0,0.0,0.0,0.0,0.0,0.0
1596620940017590428,2145,1596620940017207747,xsense,-0.0123463274603,0.00278490340257,0.561801345643,0.827175350543,-1.0,0.0,0.0,0.0,0.0,0.0,0.0,0.0,0.0,0.00152347879822,0.00462115363683,-0.0014087549333,-1.0,0.0,0.0,0.0,0.0,0.0,0.0,0.0,0.0,-0.209716916135,-0.195138106549,9.83578696184,-1.0,0.0,0.0,0.0,0.0,0.0,0.0,0.0,0.0
1596620940036124613,2146,1596620940035389296,xsense,-0.012345087967,0.00277752043448,0.561793920525,0.827180436812,-1.0,0.0,0.0,0.0,0.0,0.0,0.0,0.0,0.0,-0.00142962467677,0.00306573640408,-0.00309100768323,-1.0,0.0,0.0,0.0,0.0,0.0,0.0,0.0,0.0,-0.207815267793,-0.19460097625,9.81147711567,-1.0,0.0,0.0,0.0,0.0,0.0,0.0,0.0,0.0
1596620940037458534,2147,1596620940037031711,xsense,-0.0123459740088,0.00278760881307,0.561793496258,0.8271806778,-1.0,0.0,0.0,0.0,0.0,0.0,0.0,0.0,0.0,-2.46453761075e-05,0.00612600789511,-0.00146574714668,-1.0,0.0,0.0,0.0,0.0,0.0,0.0,0.0,0.0,-0.210538152091,-0.195214523942,9.83576790147,-1.0,0.0,0.0,0.0,0.0,0.0,0.0,0.0,0.0
1596620940056340166,2148,1596620940055532148,xsense,-0.01235581831,0.00278102649276,0.561794186749,0.827180084008,-1.0,0.0,0.0,0.0,0.0,0.0,0.0,0.0,0.0,-0.00304888747694,0.00455372031181,-0.00162384847163,-1.0,0.0,0.0,0.0,0.0,0.0,0.0,0.0,0.0,-0.163235771397,-0.169532979544,9.84080786834,-1.0,0.0,0.0,0.0,0.0,0.0,0.0,0.0,0.0
1596620940057806120,2149,1596620940057415025,xsense,-0.0123587831762,0.00278030951824,0.561799828303,0.827176210535,-1.0,0.0,0.0,0.0,0.0,0.0,0.0,0.0,0.0,-0.00159606851593,0.00455939362307,-2.77871929587e-05,-1.0,0.0,0.0,0.0,0.0,0.0,0.0,0.0,0.0,-0.184932733372,-0.194341296861,9.81373211431,-1.0,0.0,0.0,0.0,0.0,0.0,0.0,0.0,0.0
1596620940076811060,2150,1596620940076191287,xsense,-0.0123411027388,0.002775836085,0.561805912463,0.827172357274,-1.0,0.0,0.0,0.0,0.0,0.0,0.0,0.0,0.0,0.00150011574268,0.00154980995514,8.6471743485e-05,-1.0,0.0,0.0,0.0,0.0,0.0,0.0,0.0,0.0,-0.209527877968,-0.195065297734,9.81143147097,-1.0,0.0,0.0,0.0,0.0,0.0,0.0,0.0,0.0
1596620940078386034,2151,1596620940077832667,xsense,-0.0123523930894,0.00278797157205,0.561798874491,0.827176928003,-1.0,0.0,0.0,0.0,0.0,0.0,0.0,0.0,0.0,-0.00150138105129,0.00764769607735,-0.00304711013548,-1.0,0.0,0.0,0.0,0.0,0.0,0.0,0.0,0.0,-0.187961634375,-0.19488726155,9.83801917936,-1.0,0.0,0.0,0.0,0.0,0.0,0.0,0.0,0.0
1596620940096759881,2152,1596620940096243639,xsense,-0.0123559702562,0.00278769997614,0.561791583056,0.827181827614,-1.0,0.0,0.0,0.0,0.0,0.0,0.0,0.0,0.0,-0.00145335906406,0.0045930993903,-0.00307645164972,-1.0,0.0,0.0,0.0,0.0,0.0,0.0,0.0,0.0,-0.187043481344,-0.170101959154,9.81417254651,-1.0,0.0,0.0,0.0,0.0,0.0,0.0,0.0,0.0
1596620940098357078,2153,1596620940097966108,xsense,-0.0123589359006,0.00278698284977,0.56179722425,0.827177954406,-1.0,0.0,0.0,0.0,0.0,0.0,0.0,0.0,0.0,-0.00159620881,0.00455936648809,-2.78708614263e-05,-1.0,0.0,0.0,0.0,0.0,0.0,0.0,0.0,0.0,-0.189004972113,-0.195191308303,9.83799316112,-1.0,0.0,0.0,0.0,0.0,0.0,0.0,0.0,0.0
1596620940101218565,2154,1596620940099246087,xsense,-0.0123648249526,0.00277547950425,0.561788892336,0.827183563827,-1.0,0.0,0.0,0.0,0.0,0.0,0.0,0.0,0.0,-0.00295335206739,0.0030432773043,-0.00316308363957,-1.0,0.0,0.0,0.0,0.0,0.0,0.0,0.0,0.0,-0.187860308725,-0.170480755709,9.81415037207,-1.0,0.0,0.0,0.0,0.0,0.0,0.0,0.0,0.0
1596620940118705865,2155,1596620940118333225,xsense,-0.0123631750229,0.0027686883888,0.561788260494,0.827184040368,-1.0,0.0,0.0,0.0,0.0,0.0,0.0,0.0,0.0,-0.00150073880482,0.00304894952174,-0.00156683114538,-1.0,0.0,0.0,0.0,0.0,0.0,0.0,0.0,0.0,-0.18967088086,-0.195641698719,9.8379713985,-1.0,0.0,0.0,0.0,0.0,0.0,0.0,0.0,0.0
1596620940121541553,2156,1596620940121186947,xsense,-0.0123609409542,0.00277172117843,0.561800441487,0.827175790655,-1.0,0.0,0.0,0.0,0.0,0.0,0.0,0.0,0.0,-0.000143728599906,0.0045650086685,0.00156845423454,-1.0,0.0,0.0,0.0,0.0,0.0,0.0,0.0,0.0,-0.190814630975,-0.171325182452,9.8384330799,-1.0,0.0,0.0,0.0,0.0,0.0,0.0,0.0,0.0
1596620940146592976,2157,1596620940146093143,xsense,-0.0123634531896,0.00277135704992,0.561793469986,0.827180489184,-1.0,0.0,0.0,0.0,0.0,0.0,0.0,0.0,0.0,-0.00145320453794,0.00459320005414,-0.0030764292535,-1.0,0.0,0.0,0.0,0.0,0.0,0.0,0.0,0.0,-0.163912996633,-0.194539879572,9.8159539661,-1.0,0.0,0.0,0.0,0.0,0.0,0.0,0.0,0.0
1596620940148700117,2158,1596620940148308544,xsense,-0.0123776331937,0.00277197276509,0.561792284177,0.827181080419,-1.0,0.0,0.0,0.0,0.0,0.0,0.0,0.0,0.0,-0.00307295959843,0.00608099343778,-0.001609474539,-1.0,0.0,0.0,0.0,0.0,0.0,0.0,0.0,0.0,-0.215309295349,-0.196751965259,9.8356339813,-1.0,0.0,0.0,0.0,0.0,0.0,0.0,0.0,0.0
1596620940166581806,2159,1596620940166171186,xsense,-0.0123637287727,0.00277376277166,0.561798509876,0.827177054053,-1.0,0.0,0.0,0.0,0.0,0.0,0.0,0.0,0.0,0.0014758877597,0.00307723289292,0.000101614751365,-1.0,0.0,0.0,0.0,0.0,0.0,0.0,0.0,0.0,-0.164880337128,-0.194845492702,9.81593170307,-1.0,0.0,0.0,0.0,0.0,0.0,0.0,0.0,0.0
1596620940169273330,2160,1596620940168847024,xsense,-0.0123716661219,0.0027781712241,0.561805118846,0.827172431891,-1.0,0.0,0.0,0.0,0.0,0.0,0.0,0.0,0.0,-0.00162049036072,0.00608665666986,-1.31606899865e-05,-1.0,0.0,0.0,0.0,0.0,0.0,0.0,0.0,0.0,-0.187333966743,-0.195033183711,9.78931772482,-1.0,0.0,0.0,0.0,0.0,0.0,0.0,0.0,0.0
1596620940187166393,2161,1596620940186638185,xsense,-0.0123702435447,0.00277120265744,0.561810792833,0.827168622813,-1.0,0.0,0.0,0.0,0.0,0.0,0.0,0.0,0.0,-0.00157228900218,0.00303202981213,-4.26695542989e-05,-1.0,0.0,0.0,0.0,0.0,0.0,0.0,0.0,0.0,-0.19007174691,-0.195731665595,9.81360629451,-1.0,0.0,0.0,0.0,0.0,0.0,0.0,0.0,0.0
1596620940188150316,2162,1596620940187774389,xsense,-0.0123742342442,0.00277013210985,0.561809374758,0.82716952986,-1.0,0.0,0.0,0.0,0.0,0.0,0.0,0.0,0.0,-0.00152467895934,0.00457632174332,-0.00155218392999,-1.0,0.0,0.0,0.0,0.0,0.0,0.0,0.0,0.0,-0.19044351192,-0.195885145076,9.81359602518,-1.0,0.0,0.0,0.0,0.0,0.0,0.0,0.0,0.0
1596620940206311826,2163,1596620940205790549,xsense,-0.0123665712852,0.00276754255995,0.561815324866,0.827165611815,-1.0,0.0,0.0,0.0,0.0,0.0,0.0,0.0,0.0,-4.82296342077e-05,0.00305463868762,2.95502173048e-05,-1.0,0.0,0.0,0.0,0.0,0.0,0.0,0.0,0.0,-0.193109805285,-0.196506532564,9.83788725993,-1.0,0.0,0.0,0.0,0.0,0.0,0.0,0.0,0.0
1596620940208254701,2164,1596620940207670552,xsense,-0.0123531881684,0.0027695635517,0.561809311621,0.827169889222,-1.0,0.0,0.0,0.0,0.0,0.0,0.0,0.0,0.0,0.00161939392046,0.00311122278129,-0.00294674294239,-1.0,0.0,0.0,0.0,0.0,0.0,0.0,0.0,0.0,-0.191116143892,-0.195889467897,9.81358286222,-1.0,0.0,0.0,0.0,0.0,0.0,0.0,0.0,0.0
1596620940226334150,2165,1596620940225997764,xsense,-0.0123540773934,0.0027796513138,0.561808889348,0.82717012891,-1.0,0.0,0.0,0.0,0.0,0.0,0.0,0.0,0.0,-2.47584108173e-05,0.00612626072785,-0.00146522856802,-1.0,0.0,0.0,0.0,0.0,0.0,0.0,0.0,0.0,-0.192336700366,-0.171418136299,9.81404733741,-1.0,0.0,0.0,0.0,0.0,0.0,0.0,0.0,0.0
1596620940228293121,2166,1596620940227322037,xsense,-0.0123555648398,0.00278950678056,0.561810562782,0.827168936926,-1.0,0.0,0.0,0.0,0.0,0.0,0.0,0.0,0.0,-2.47604765426e-05,0.00612627011228,-0.00146523161432,-1.0,0.0,0.0,0.0,0.0,0.0,0.0,0.0,0.0,-0.216456956421,-0.196544692089,9.81125152606,-1.0,0.0,0.0,0.0,0.0,0.0,0.0,0.0,0.0
1596620940246343381,2167,1596620940245827272,xsense,-0.0123601554396,0.00277833620839,0.561809652955,0.82716952389,-1.0,0.0,0.0,0.0,0.0,0.0,0.0,0.0,0.0,-0.00302458947544,0.00302630750358,-0.00163950192797,-1.0,0.0,0.0,0.0,0.0,0.0,0.0,0.0,0.0,-0.194907265856,-0.196516197349,9.83785162027,-1.0,0.0,0.0,0.0,0.0,0.0,0.0,0.0,0.0
1596620940247193089,2168,1596620940246823415,xsense,-0.0123584114162,0.00277087280153,0.561798611955,0.827177073871,-1.0,0.0,0.0,0.0,0.0,0.0,0.0,0.0,0.0,-0.00135669608544,0.00308298365209,-0.00461564383392,-1.0,0.0,0.0,0.0,0.0,0.0,0.0,0.0,0.0,-0.197500136814,-0.197281317135,9.86214089957,-1.0,0.0,0.0,0.0,0.0,0.0,0.0,0.0,0.0
1596620940248439383,2169,1596620940247990254,xsense,-0.0123507494426,0.00276828229679,0.561804562149,0.827173155724,-1.0,0.0,0.0,0.0,0.0,0.0,0.0,0.0,0.0,-4.84219966739e-05,0.00305465301177,2.95822330681e-05,-1.0,0.0,0.0,0.0,0.0,0.0,0.0,0.0,0.0,-0.21826676024,-0.172596057336,9.81169232009,-1.0,0.0,0.0,0.0,0.0,0.0,0.0,0.0,0.0
1596620940267791918,2170,1596620940267330268,xsense,-0.0123499306176,0.00276159478663,0.561796724782,0.82717851328,-1.0,0.0,0.0,0.0,0.0,0.0,0.0,0.0,0.0,-0.00142858301639,0.00306597980803,-0.00309139922902,-1.0,0.0,0.0,0.0,0.0,0.0,0.0,0.0,0.0,-0.171503922098,-0.196161098253,9.8401421746,-1.0,0.0,0.0,0.0,0.0,0.0,0.0,0.0,0.0
1596620940270512293,2171,1596620940270241416,xsense,-0.0123589117641,0.00275667326026,0.56179578146,0.827179036235,-1.0,0.0,0.0,0.0,0.0,0.0,0.0,0.0,0.0,-0.00304886935279,0.00455356027692,-0.00162480295907,-1.0,0.0,0.0,0.0,0.0,0.0,0.0,0.0,0.0,-0.196941960234,-0.17271474131,9.83828803699,-1.0,0.0,0.0,0.0,0.0,0.0,0.0,0.0,0.0
1596620940297084589,2172,1596620940296637971,xsense,-0.0123585621818,0.00274870316057,0.561802183202,0.827174720069,-1.0,0.0,0.0,0.0,0.0,0.0,0.0,0.0,0.0,-0.00157256621344,0.00303192231513,-4.28585163657e-05,-1.0,0.0,0.0,0.0,0.0,0.0,0.0,0.0,0.0,-0.194236897261,-0.196795753832,9.81350345782,-1.0,0.0,0.0,0.0,0.0,0.0,0.0,0.0,0.0
1596620940298641528,2173,1596620940298359442,xsense,-0.0123506721686,0.00274629096367,0.561801827615,0.827175087434,-1.0,0.0,0.0,0.0,0.0,0.0,0.0,0.0,0.0,2.35378857579e-05,0.00307172440978,-0.0014945948248,-1.0,0.0,0.0,0.0,0.0,0.0,0.0,0.0,0.0,-0.170241997757,-0.196146460767,9.81581426664,-1.0,0.0,0.0,0.0,0.0,0.0,0.0,0.0,0.0
1596620940316351034,2174,1596620940315848269,xsense,-0.0123644647737,0.00274665047869,0.561801849348,0.827174865425,-1.0,0.0,0.0,0.0,0.0,0.0,0.0,0.0,0.0,-0.00307311973131,0.00608089825136,-0.0016100329088,-1.0,0.0,0.0,0.0,0.0,0.0,0.0,0.0,0.0,-0.197284564051,-0.197571648859,9.83778309516,-1.0,0.0,0.0,0.0,0.0,0.0,0.0,0.0,0.0
1596620940317704520,2175,1596620940317310264,xsense,-0.0123521841928,0.00273798848901,0.561801526632,0.827175296802,-1.0,0.0,0.0,0.0,0.0,0.0,0.0,0.0,0.0,4.7831299172e-05,0.00154442186032,-0.00150940484706,-1.0,0.0,0.0,0.0,0.0,0.0,0.0,0.0,0.0,-0.172587947527,-0.221393169819,9.83961814768,-1.0,0.0,0.0,0.0,0.0,0.0,0.0,0.0,0.0
1596620940336513794,2176,1596620940335703976,xsense,-0.0123493839008,0.00274119174152,0.561801548709,0.82717531301,-1.0,0.0,0.0,0.0,0.0,0.0,0.0,0.0,0.0,-7.41417932329e-07,0.00459909119236,-0.00147969602118,-1.0,0.0,0.0,0.0,0.0,0.0,0.0,0.0,0.0,-0.223024709759,-0.174054925614,9.83592019744,-1.0,0.0,0.0,0.0,0.0,0.0,0.0,0.0,0.0
1596620940338088529,2177,1596620940337535675,xsense,-0.0123458844789,0.00274502870438,0.561801160783,0.827175615995,-1.0,0.0,0.0,0.0,0.0,0.0,0.0,0.0,0.0,-7.42641144833e-07,0.00459909673693,-0.0014796978239,-1.0,0.0,0.0,0.0,0.0,0.0,0.0,0.0,0.0,-0.196875621666,-0.172783896544,9.81393338199,-1.0,0.0,0.0,0.0,0.0,0.0,0.0,0.0,0.0
1596620940356201920,2178,1596620940355647730,xsense,-0.0123451810753,0.0027375237719,0.561802065976,0.827175036575,-1.0,0.0,0.0,0.0,0.0,0.0,0.0,0.0,0.0,-0.00150049407773,0.00304897357328,-0.0015672324858,-1.0,0.0,0.0,0.0,0.0,0.0,0.0,0.0,0.0,-0.174486147612,-0.197075499204,9.84007147435,-1.0,0.0,0.0,0.0,0.0,0.0,0.0,0.0,0.0
1596620940358017595,2179,1596620940357561830,xsense,-0.0123506931159,0.00275368001938,0.561807919339,0.827170925138,-1.0,0.0,0.0,0.0,0.0,0.0,0.0,0.0,0.0,-0.000121613771846,0.00763669082924,7.43152091712e-05,-1.0,0.0,0.0,0.0,0.0,0.0,0.0,0.0,0.0,-0.199302644735,-0.197885329019,9.83773611382,-1.0,0.0,0.0,0.0,0.0,0.0,0.0,0.0,0.0
1596620940376095018,2180,1596620940375731894,xsense,-0.0123395797289,0.00274425319,0.561807579267,0.827171353303,-1.0,0.0,0.0,0.0,0.0,0.0,0.0,0.0,0.0,4.79447784598e-05,0.0015444451652,-0.00150939079556,-1.0,0.0,0.0,0.0,0.0,0.0,0.0,0.0,0.0,-0.173150971854,-0.196614834281,9.81575401237,-1.0,0.0,0.0,0.0,0.0,0.0,0.0,0.0,0.0
1596620940377932066,2181,1596620940377562307,xsense,-0.0123513326329,0.00275602901329,0.561813153955,0.827167352432,-1.0,0.0,0.0,0.0,0.0,0.0,0.0,0.0,0.0,-0.00164573151274,0.00761389348658,1.53292372584e-06,-1.0,0.0,0.0,0.0,0.0,0.0,0.0,0.0,0.0,-0.17590982015,-0.197241428551,9.84004280388,-1.0,0.0,0.0,0.0,0.0,0.0,0.0,0.0,0.0
1596620940396671420,2182,1596620940396144876,xsense,-0.0123336925984,0.00275038841459,0.561807507034,0.827171469788,-1.0,0.0,0.0,0.0,0.0,0.0,0.0,0.0,0.0,0.0016443918081,0.00158439313497,-0.00296079542557,-1.0,0.0,0.0,0.0,0.0,0.0,0.0,0.0,0.0,-0.198339386642,-0.197426613597,9.81340872847,-1.0,0.0,0.0,0.0,0.0,0.0,0.0,0.0,0.0
1596620940400341268,2183,1596620940399856988,xsense,-0.0123258031329,0.00274797508839,0.561807151559,0.827171836843,-1.0,0.0,0.0,0.0,0.0,0.0,0.0,0.0,0.0,2.36310950659e-05,0.00307179517987,-0.00149453099181,-1.0,0.0,0.0,0.0,0.0,0.0,0.0,0.0,0.0,-0.175050290966,-0.172222191085,9.81620896518,-1.0,0.0,0.0,0.0,0.0,0.0,0.0,0.0,0.0
1596620940416734061,2184,1596620940416187549,xsense,-0.0123297253649,0.00274748556231,0.561799422128,0.827177029718,-1.0,0.0,0.0,0.0,0.0,0.0,0.0,0.0,0.0,-0.00145241937477,0.00459340587222,-0.00307679041092,-1.0,0.0,0.0,0.0,0.0,0.0,0.0,0.0,0.0,-0.201248485194,-0.197970818444,9.83769477909,-1.0,0.0,0.0,0.0,0.0,0.0,0.0,0.0,0.0
1596620940418137395,2185,1596620940417701579,xsense,-0.0123326979739,0.00274676123177,0.561805061338,0.82717315776,-1.0,0.0,0.0,0.0,0.0,0.0,0.0,0.0,0.0,-0.00159723433472,0.00455916816019,-2.82975555914e-05,-1.0,0.0,0.0,0.0,0.0,0.0,0.0,0.0,0.0,-0.197846169922,-0.172632197951,9.78956201911,-1.0,0.0,0.0,0.0,0.0,0.0,0.0,0.0,0.0
1596620940420660018,2186,1596620940420147230,xsense,-0.0123319370628,0.00273917997356,0.56180481404,0.827173362206,-1.0,0.0,0.0,0.0,0.0,0.0,0.0,0.0,0.0,-0.0015003979699,0.00304896042265,-0.00156742456427,-1.0,0.0,0.0,0.0,0.0,0.0,0.0,0.0,0.0,-0.179312375057,-0.222491666625,9.86382525979,-1.0,0.0,0.0,0.0,0.0,0.0,0.0,0.0,0.0
1596620940447117533,2187,1596620940446749735,xsense,-0.0123434615897,0.00275113426518,0.561804082523,0.827173647475,-1.0,0.0,0.0,0.0,0.0,0.0,0.0,0.0,0.0,-0.0015736248911,0.00763101175377,-0.00152275587612,-1.0,0.0,0.0,0.0,0.0,0.0,0.0,0.0,0.0,-0.200273782033,-0.197884071717,9.81336022997,-1.0,0.0,0.0,0.0,0.0,0.0,0.0,0.0,0.0
1596620940448214684,2188,1596620940447772183,xsense,-0.012324116386,0.00272956123667,0.561816033188,0.827165890559,-1.0,0.0,0.0,0.0,0.0,0.0,0.0,0.0,0.0,-4.81013858146e-05,-0.00154450934616,0.00150934103415,-1.0,0.0,0.0,0.0,0.0,0.0,0.0,0.0,0.0,-0.201352675265,-0.173566713526,9.81382873259,-1.0,0.0,0.0,0.0,0.0,0.0,0.0,0.0,0.0
1596620940465964505,2189,1596620940465532193,xsense,-0.012327089807,0.00272883656071,0.5618216722,0.827162018563,-1.0,0.0,0.0,0.0,0.0,0.0,0.0,0.0,0.0,-0.00159727275891,0.00455917268482,-2.83047753572e-05,-1.0,0.0,0.0,0.0,0.0,0.0,0.0,0.0,0.0,-0.19840394512,-0.197494334424,9.78905027695,-1.0,0.0,0.0,0.0,0.0,0.0,0.0,0.0,0.0
